# 
#                 ----------------------------------------------------
#                 Data from a 3D direct N-body simulation. 
# 
#                 rows are i-particle; 
#                 coumns are :mass, tag, x ,y, z, vx, vy, vz, ax, ay, az
# 
#                 NTHU, Computational Physics Lab
# 
#                 ----------------------------------------------------
#                 Time = 0.5
1.000000000000000000e+00 2.000000000000000000e+00 3.000000000000000000e+00 4.000000000000000000e+00 5.000000000000000000e+00 6.000000000000000000e+00 7.000000000000000000e+00 8.000000000000000000e+00 9.000000000000000000e+00 1.000000000000000000e+01 1.100000000000000000e+01 1.200000000000000000e+01 1.300000000000000000e+01 1.400000000000000000e+01 1.500000000000000000e+01 1.600000000000000000e+01 1.700000000000000000e+01 1.800000000000000000e+01 1.900000000000000000e+01 2.000000000000000000e+01 2.100000000000000000e+01 2.200000000000000000e+01 2.300000000000000000e+01 2.400000000000000000e+01 2.500000000000000000e+01 2.600000000000000000e+01 2.700000000000000000e+01 2.800000000000000000e+01 2.900000000000000000e+01 3.000000000000000000e+01 3.100000000000000000e+01 3.200000000000000000e+01 3.300000000000000000e+01 3.400000000000000000e+01 3.500000000000000000e+01 3.600000000000000000e+01 3.700000000000000000e+01 3.800000000000000000e+01 3.900000000000000000e+01 4.000000000000000000e+01 4.100000000000000000e+01 4.200000000000000000e+01 4.300000000000000000e+01 4.400000000000000000e+01 4.500000000000000000e+01 4.600000000000000000e+01 4.700000000000000000e+01 4.800000000000000000e+01 4.900000000000000000e+01 5.000000000000000000e+01 5.100000000000000000e+01 5.200000000000000000e+01 5.300000000000000000e+01 5.400000000000000000e+01 5.500000000000000000e+01 5.600000000000000000e+01 5.700000000000000000e+01 5.800000000000000000e+01 5.900000000000000000e+01 6.000000000000000000e+01 6.100000000000000000e+01 6.200000000000000000e+01 6.300000000000000000e+01 6.400000000000000000e+01 6.500000000000000000e+01 6.600000000000000000e+01 6.700000000000000000e+01 6.800000000000000000e+01 6.900000000000000000e+01 7.000000000000000000e+01 7.100000000000000000e+01 7.200000000000000000e+01 7.300000000000000000e+01 7.400000000000000000e+01 7.500000000000000000e+01 7.600000000000000000e+01 7.700000000000000000e+01 7.800000000000000000e+01 7.900000000000000000e+01 8.000000000000000000e+01 8.100000000000000000e+01 8.200000000000000000e+01 8.300000000000000000e+01 8.400000000000000000e+01 8.500000000000000000e+01 8.600000000000000000e+01 8.700000000000000000e+01 8.800000000000000000e+01 8.900000000000000000e+01 9.000000000000000000e+01 9.100000000000000000e+01 9.200000000000000000e+01 9.300000000000000000e+01 9.400000000000000000e+01 9.500000000000000000e+01 9.600000000000000000e+01 9.700000000000000000e+01 9.800000000000000000e+01 9.900000000000000000e+01 1.000000000000000000e+02
1.000000000000000000e+00 1.000000000000000000e+00 1.000000000000000000e+00 1.000000000000000000e+00 1.000000000000000000e+00 1.000000000000000000e+00 1.000000000000000000e+00 1.000000000000000000e+00 1.000000000000000000e+00 1.000000000000000000e+00 1.000000000000000000e+00 1.000000000000000000e+00 1.000000000000000000e+00 1.000000000000000000e+00 1.000000000000000000e+00 1.000000000000000000e+00 1.000000000000000000e+00 1.000000000000000000e+00 1.000000000000000000e+00 1.000000000000000000e+00 1.000000000000000000e+00 1.000000000000000000e+00 1.000000000000000000e+00 1.000000000000000000e+00 1.000000000000000000e+00 1.000000000000000000e+00 1.000000000000000000e+00 1.000000000000000000e+00 1.000000000000000000e+00 1.000000000000000000e+00 1.000000000000000000e+00 1.000000000000000000e+00 1.000000000000000000e+00 1.000000000000000000e+00 1.000000000000000000e+00 1.000000000000000000e+00 1.000000000000000000e+00 1.000000000000000000e+00 1.000000000000000000e+00 1.000000000000000000e+00 1.000000000000000000e+00 1.000000000000000000e+00 1.000000000000000000e+00 1.000000000000000000e+00 1.000000000000000000e+00 1.000000000000000000e+00 1.000000000000000000e+00 1.000000000000000000e+00 1.000000000000000000e+00 1.000000000000000000e+00 1.000000000000000000e+00 1.000000000000000000e+00 1.000000000000000000e+00 1.000000000000000000e+00 1.000000000000000000e+00 1.000000000000000000e+00 1.000000000000000000e+00 1.000000000000000000e+00 1.000000000000000000e+00 1.000000000000000000e+00 1.000000000000000000e+00 1.000000000000000000e+00 1.000000000000000000e+00 1.000000000000000000e+00 1.000000000000000000e+00 1.000000000000000000e+00 1.000000000000000000e+00 1.000000000000000000e+00 1.000000000000000000e+00 1.000000000000000000e+00 1.000000000000000000e+00 1.000000000000000000e+00 1.000000000000000000e+00 1.000000000000000000e+00 1.000000000000000000e+00 1.000000000000000000e+00 1.000000000000000000e+00 1.000000000000000000e+00 1.000000000000000000e+00 1.000000000000000000e+00 1.000000000000000000e+00 1.000000000000000000e+00 1.000000000000000000e+00 1.000000000000000000e+00 1.000000000000000000e+00 1.000000000000000000e+00 1.000000000000000000e+00 1.000000000000000000e+00 1.000000000000000000e+00 1.000000000000000000e+00 1.000000000000000000e+00 1.000000000000000000e+00 1.000000000000000000e+00 1.000000000000000000e+00 1.000000000000000000e+00 1.000000000000000000e+00 1.000000000000000000e+00 1.000000000000000000e+00 1.000000000000000000e+00 1.000000000000000000e+00
-1.727863575483933674e-04 -1.692957239897271895e-04 -1.658050904355203893e-04 -1.623144568856811350e-04 -1.588238233401176487e-04 -1.553331897987376379e-04 -1.518425562614498397e-04 -1.483519227281618531e-04 -1.448612891987813853e-04 -1.413706556732172008e-04 -1.378800221513769525e-04 -1.343893886331686189e-04 -1.308987551185004494e-04 -1.274081216072802053e-04 -1.239174880994164886e-04 -1.204268545948168709e-04 -1.169362210933896424e-04 -1.134455875950427677e-04 -1.099549540996844015e-04 -1.064643206072223052e-04 -1.029736871175647688e-04 -9.948305363061979792e-05 -9.599242014629537074e-05 -9.250178666449972316e-05 -8.901115318514084707e-05 -8.552051970812658529e-05 -8.202988623336522785e-05 -7.853925276076467179e-05 -7.504861929023300387e-05 -7.155798582167833795e-05 -6.806735235500862527e-05 -6.457671889013193904e-05 -6.108608542695640668e-05 -5.759545196538987100e-05 -5.410481850534064915e-05 -5.061418504671668560e-05 -4.712355158942600612e-05 -4.363291813337674490e-05 -4.014228467847680574e-05 -3.665165122463432963e-05 -3.316101777175733554e-05 -2.967038431975388654e-05 -2.617975086853209648e-05 -2.268911741799988611e-05 -1.919848396806535235e-05 -1.570785051863655485e-05 -1.221721706962150585e-05 -8.726583620928339530e-06 -5.235950172465059647e-06 -1.745316724139692821e-06 1.745316724139694303e-06 5.235950172465068117e-06 8.726583620928336142e-06 1.221721706962153465e-05 1.570785051863652097e-05 1.919848396806533879e-05 2.268911741799983867e-05 2.617975086853206938e-05 2.967038431975391365e-05 3.316101777175734232e-05 3.665165122463432285e-05 4.014228467847677864e-05 4.363291813337676523e-05 4.712355158942607388e-05 5.061418504671673303e-05 5.410481850534068303e-05 5.759545196538993876e-05 6.108608542695639313e-05 6.457671889013193904e-05 6.806735235500865238e-05 7.155798582167831085e-05 7.504861929023300387e-05 7.853925276076460403e-05 8.202988623336518719e-05 8.552051970812666660e-05 8.901115318514087418e-05 9.250178666449972316e-05 9.599242014629537074e-05 9.948305363061978436e-05 1.029736871175647824e-04 1.064643206072223323e-04 1.099549540996843744e-04 1.134455875950428762e-04 1.169362210933897102e-04 1.204268545948169252e-04 1.239174880994164886e-04 1.274081216072802867e-04 1.308987551185003951e-04 1.343893886331685105e-04 1.378800221513768170e-04 1.413706556732171465e-04 1.448612891987815479e-04 1.483519227281618531e-04 1.518425562614498397e-04 1.553331897987377192e-04 1.588238233401177029e-04 1.623144568856811892e-04 1.658050904355203351e-04 1.692957239897271624e-04 1.727863575483933674e-04
-1.478497820285219913e-19 -1.448629220329038354e-19 -1.418760617747660928e-19 -1.388892012595252249e-19 -1.359023404925929263e-19 -1.329154794793767509e-19 -1.299286182253065210e-19 -1.269417567357791740e-19 -1.239548950162020229e-19 -1.209680330720072494e-19 -1.179811709085941259e-19 -1.149943085313728545e-19 -1.120074459457642056e-19 -1.090205831571759259e-19 -1.060337201710263422e-19 -1.030468569927225873e-19 -1.000599936276800992e-19 -9.707313008131278740e-20 -9.408626635903105856e-20 -9.109940246624952027e-20 -8.811253840837668936e-20 -8.512567419082875029e-20 -8.213880981901500231e-20 -7.915194529835607154e-20 -7.616508063425999333e-20 -7.317821583213442991e-20 -7.019135089740476203e-20 -6.720448583546848059e-20 -6.421762065174658485e-20 -6.123075535165084167e-20 -5.824388994059457067e-20 -5.525702442398643315e-20 -5.227015880724747651e-20 -4.928329309578024723e-20 -4.629642729500391493e-20 -4.330956141033294277e-20 -4.032269544717225453e-20 -3.733582941094458883e-20 -3.434896330705515233e-20 -3.136209714091923872e-20 -2.837523091794921070e-20 -2.538836464355790942e-20 -2.240149832315940682e-20 -1.941463196216616188e-20 -1.642776556598821412e-20 -1.344089914003997856e-20 -1.045403268973462435e-20 -7.467166220485362790e-21 -4.480299737704118713e-21 -1.493433246803312354e-21 1.493433246803298812e-21 4.480299737704038968e-21 7.467166220485119039e-21 1.045403268973507574e-20 1.344089914003933006e-20 1.642776556598745579e-20 1.941463196216415770e-20 2.240149832315930149e-20 2.538836464355847817e-20 2.837523091794877135e-20 3.136209714091707205e-20 3.434896330705409908e-20 3.733582941094520874e-20 4.032269544717678046e-20 4.330956141033297888e-20 4.629642729500530521e-20 4.928329309578054213e-20 5.227015880724441910e-20 5.525702442398598778e-20 5.824388994059398086e-20 6.123075535164984259e-20 6.421762065174717467e-20 6.720448583546425558e-20 7.019135089740320925e-20 7.317821583213728270e-20 7.616508063426117297e-20 7.915194529835669746e-20 8.213880981901562823e-20 8.512567419082900307e-20 8.811253840837648473e-20 9.109940246624820823e-20 9.408626635903131134e-20 9.707313008131677167e-20 1.000599936276829520e-19 1.030468569927259095e-19 1.060337201710264385e-19 1.090205831571746981e-19 1.120074459457644464e-19 1.149943085313695804e-19 1.179811709085920315e-19 1.209680330720044327e-19 1.239548950162050803e-19 1.269417567357809555e-19 1.299286182253057747e-19 1.329154794793806509e-19 1.359023404925931189e-19 1.388892012595248397e-19 1.418760617747652502e-19 1.448629220329017409e-19 1.478497820285219431e-19
0.000000000000000000e+00 0.000000000000000000e+00 0.000000000000000000e+00 0.000000000000000000e+00 0.000000000000000000e+00 0.000000000000000000e+00 0.000000000000000000e+00 0.000000000000000000e+00 0.000000000000000000e+00 0.000000000000000000e+00 0.000000000000000000e+00 0.000000000000000000e+00 0.000000000000000000e+00 0.000000000000000000e+00 0.000000000000000000e+00 0.000000000000000000e+00 0.000000000000000000e+00 0.000000000000000000e+00 0.000000000000000000e+00 0.000000000000000000e+00 0.000000000000000000e+00 0.000000000000000000e+00 0.000000000000000000e+00 0.000000000000000000e+00 0.000000000000000000e+00 0.000000000000000000e+00 0.000000000000000000e+00 0.000000000000000000e+00 0.000000000000000000e+00 0.000000000000000000e+00 0.000000000000000000e+00 0.000000000000000000e+00 0.000000000000000000e+00 0.000000000000000000e+00 0.000000000000000000e+00 0.000000000000000000e+00 0.000000000000000000e+00 0.000000000000000000e+00 0.000000000000000000e+00 0.000000000000000000e+00 0.000000000000000000e+00 0.000000000000000000e+00 0.000000000000000000e+00 0.000000000000000000e+00 0.000000000000000000e+00 0.000000000000000000e+00 0.000000000000000000e+00 0.000000000000000000e+00 0.000000000000000000e+00 0.000000000000000000e+00 0.000000000000000000e+00 0.000000000000000000e+00 0.000000000000000000e+00 0.000000000000000000e+00 0.000000000000000000e+00 0.000000000000000000e+00 0.000000000000000000e+00 0.000000000000000000e+00 0.000000000000000000e+00 0.000000000000000000e+00 0.000000000000000000e+00 0.000000000000000000e+00 0.000000000000000000e+00 0.000000000000000000e+00 0.000000000000000000e+00 0.000000000000000000e+00 0.000000000000000000e+00 0.000000000000000000e+00 0.000000000000000000e+00 0.000000000000000000e+00 0.000000000000000000e+00 0.000000000000000000e+00 0.000000000000000000e+00 0.000000000000000000e+00 0.000000000000000000e+00 0.000000000000000000e+00 0.000000000000000000e+00 0.000000000000000000e+00 0.000000000000000000e+00 0.000000000000000000e+00 0.000000000000000000e+00 0.000000000000000000e+00 0.000000000000000000e+00 0.000000000000000000e+00 0.000000000000000000e+00 0.000000000000000000e+00 0.000000000000000000e+00 0.000000000000000000e+00 0.000000000000000000e+00 0.000000000000000000e+00 0.000000000000000000e+00 0.000000000000000000e+00 0.000000000000000000e+00 0.000000000000000000e+00 0.000000000000000000e+00 0.000000000000000000e+00 0.000000000000000000e+00 0.000000000000000000e+00 0.000000000000000000e+00 0.000000000000000000e+00
-8.584302254486994013e-04 -8.410881888665233674e-04 -8.237461530083624740e-04 -8.064041178592885580e-04 -7.890620834043750829e-04 -7.717200496286930186e-04 -7.543780165173171294e-04 -7.370359840553179515e-04 -7.196939522277655873e-04 -7.023519210197351264e-04 -6.850098904162967798e-04 -6.676678604025221677e-04 -6.503258309634843198e-04 -6.329838020842536639e-04 -6.156417737499046390e-04 -5.982997459455072393e-04 -5.809577186561343861e-04 -5.636156918668576996e-04 -5.462736655627491254e-04 -5.289316397288794163e-04 -5.115896143503214939e-04 -4.942475894121470866e-04 -4.769055648994278149e-04 -4.595635407972361664e-04 -4.422215170906437613e-04 -4.248794937647215695e-04 -4.075374708045421328e-04 -3.901954481951770172e-04 -3.728534259216981684e-04 -3.555114039691775318e-04 -3.381693823226861856e-04 -3.208273609672962381e-04 -3.034853398880800143e-04 -2.861433190701078333e-04 -2.688012984984528876e-04 -2.514592781581866891e-04 -2.341172580343807495e-04 -2.167752381121068790e-04 -1.994332183764365623e-04 -1.820911988124415009e-04 -1.647491794051938302e-04 -1.474071601397648453e-04 -1.300651410012266542e-04 -1.127231219746505249e-04 -9.538110304510833521e-05 -7.803908419767184091e-05 -6.069706541741244545e-05 -4.335504668940231123e-05 -2.601302799871318050e-05 -8.671009330416309320e-06 8.671009330416338119e-06 2.601302799871325165e-05 4.335504668940240610e-05 6.069706541741258098e-05 7.803908419767163762e-05 9.538110304510825390e-05 1.127231219746503758e-04 1.300651410012266000e-04 1.474071601397650350e-04 1.647491794051939116e-04 1.820911988124416635e-04 1.994332183764363454e-04 2.167752381121069603e-04 2.341172580343808579e-04 2.514592781581868517e-04 2.688012984984529960e-04 2.861433190701083754e-04 3.034853398880801769e-04 3.208273609672961839e-04 3.381693823226864025e-04 3.555114039691772065e-04 3.728534259216980599e-04 3.901954481951768004e-04 4.075374708045419159e-04 4.248794937647217321e-04 4.422215170906438697e-04 4.595635407972360580e-04 4.769055648994275981e-04 4.942475894121467614e-04 5.115896143503214939e-04 5.289316397288796332e-04 5.462736655627489085e-04 5.636156918668580248e-04 5.809577186561346029e-04 5.982997459455072393e-04 6.156417737499048559e-04 6.329838020842540975e-04 6.503258309634844282e-04 6.676678604025220592e-04 6.850098904162963461e-04 7.023519210197352348e-04 7.196939522277665631e-04 7.370359840553181684e-04 7.543780165173173463e-04 7.717200496286935607e-04 7.890620834043757335e-04 8.064041178592886664e-04 8.237461530083621487e-04 8.410881888665231506e-04 8.584302254486994013e-04
-8.284083523416023502e-19 -8.116728472360156292e-19 -7.949373410795601600e-19 -7.782018338939269213e-19 -7.614663257007757877e-19 -7.447308165217424638e-19 -7.279953063786024764e-19 -7.112597952929236409e-19 -6.945242832863365580e-19 -6.777887703806360140e-19 -6.610532565973983944e-19 -6.443177419582779891e-19 -6.275822264849928359e-19 -6.108467101991804689e-19 -5.941111931225386073e-19 -5.773756752767036296e-19 -5.606401566833567886e-19 -5.439046373641767369e-19 -5.271691173408102529e-19 -5.104335966349431152e-19 -4.936980752682093912e-19 -4.769625532623014076e-19 -4.602270306388631504e-19 -4.434915074196140056e-19 -4.267559836261891479e-19 -4.100204592802233670e-19 -3.932849344034672008e-19 -3.765494090174868277e-19 -3.598138831440046670e-19 -3.430783568046799196e-19 -3.263428300211848342e-19 -3.096073028151584376e-19 -2.928717752083244973e-19 -2.761362472222812103e-19 -2.594007188787382847e-19 -2.426651901993749510e-19 -2.259296612058066914e-19 -2.091941319197649530e-19 -1.924586023628697680e-19 -1.757230725568025334e-19 -1.589875425232296723e-19 -1.422520122838178003e-19 -1.255164818602418866e-19 -1.087809512741698467e-19 -9.204542054724898898e-20 -7.530988970115803812e-20 -5.857435875756699216e-20 -4.183882773814526529e-20 -2.510329666455538050e-20 -8.367765558461702420e-21 8.367765558461615152e-21 2.510329666455482077e-20 4.183882773814386298e-20 5.857435875756984494e-20 7.530988970115386126e-20 9.204542054724380100e-20 1.087809512741569189e-19 1.255164818602417903e-19 1.422520122838212669e-19 1.589875425232264464e-19 1.757230725567882093e-19 1.924586023628627383e-19 2.091941319197694067e-19 2.259296612058360137e-19 2.426651901993753844e-19 2.594007188787477699e-19 2.761362472222833288e-19 2.928717752083044677e-19 3.096073028151555969e-19 3.263428300211808861e-19 3.430783568046734195e-19 3.598138831440082782e-19 3.765494090174591425e-19 3.932849344034572341e-19 4.100204592802424819e-19 4.267559836261967072e-19 4.434915074196175686e-19 4.602270306388673875e-19 4.769625532623029484e-19 4.936980752682079467e-19 5.104335966349343522e-19 5.271691173408125640e-19 5.439046373642020629e-19 5.606401566833754702e-19 5.773756752767248149e-19 5.941111931225399554e-19 6.108467101991712244e-19 6.275822264849962063e-19 6.443177419582568039e-19 6.610532565973846240e-19 6.777887703806167547e-19 6.945242832863565877e-19 7.112597952929353891e-19 7.279953063785981431e-19 7.447308165217672120e-19 7.614663257007767507e-19 7.782018338939244176e-19 7.949373410795540934e-19 8.116728472360023403e-19 8.284083523416023502e-19
0.000000000000000000e+00 0.000000000000000000e+00 0.000000000000000000e+00 0.000000000000000000e+00 0.000000000000000000e+00 0.000000000000000000e+00 0.000000000000000000e+00 0.000000000000000000e+00 0.000000000000000000e+00 0.000000000000000000e+00 0.000000000000000000e+00 0.000000000000000000e+00 0.000000000000000000e+00 0.000000000000000000e+00 0.000000000000000000e+00 0.000000000000000000e+00 0.000000000000000000e+00 0.000000000000000000e+00 0.000000000000000000e+00 0.000000000000000000e+00 0.000000000000000000e+00 0.000000000000000000e+00 0.000000000000000000e+00 0.000000000000000000e+00 0.000000000000000000e+00 0.000000000000000000e+00 0.000000000000000000e+00 0.000000000000000000e+00 0.000000000000000000e+00 0.000000000000000000e+00 0.000000000000000000e+00 0.000000000000000000e+00 0.000000000000000000e+00 0.000000000000000000e+00 0.000000000000000000e+00 0.000000000000000000e+00 0.000000000000000000e+00 0.000000000000000000e+00 0.000000000000000000e+00 0.000000000000000000e+00 0.000000000000000000e+00 0.000000000000000000e+00 0.000000000000000000e+00 0.000000000000000000e+00 0.000000000000000000e+00 0.000000000000000000e+00 0.000000000000000000e+00 0.000000000000000000e+00 0.000000000000000000e+00 0.000000000000000000e+00 0.000000000000000000e+00 0.000000000000000000e+00 0.000000000000000000e+00 0.000000000000000000e+00 0.000000000000000000e+00 0.000000000000000000e+00 0.000000000000000000e+00 0.000000000000000000e+00 0.000000000000000000e+00 0.000000000000000000e+00 0.000000000000000000e+00 0.000000000000000000e+00 0.000000000000000000e+00 0.000000000000000000e+00 0.000000000000000000e+00 0.000000000000000000e+00 0.000000000000000000e+00 0.000000000000000000e+00 0.000000000000000000e+00 0.000000000000000000e+00 0.000000000000000000e+00 0.000000000000000000e+00 0.000000000000000000e+00 0.000000000000000000e+00 0.000000000000000000e+00 0.000000000000000000e+00 0.000000000000000000e+00 0.000000000000000000e+00 0.000000000000000000e+00 0.000000000000000000e+00 0.000000000000000000e+00 0.000000000000000000e+00 0.000000000000000000e+00 0.000000000000000000e+00 0.000000000000000000e+00 0.000000000000000000e+00 0.000000000000000000e+00 0.000000000000000000e+00 0.000000000000000000e+00 0.000000000000000000e+00 0.000000000000000000e+00 0.000000000000000000e+00 0.000000000000000000e+00 0.000000000000000000e+00 0.000000000000000000e+00 0.000000000000000000e+00 0.000000000000000000e+00 0.000000000000000000e+00 0.000000000000000000e+00 0.000000000000000000e+00
-1.465743787665000399e-08 -1.421988273230289013e-08 -1.379098747130204914e-08 -1.337057354215321248e-08 -1.295846239750156163e-08 -1.255447548302797320e-08 -1.215843425258295653e-08 -1.177016015941901575e-08 -1.138947463406869020e-08 -1.101619913784230843e-08 -1.065015511151134407e-08 -1.029116399948866537e-08 -9.939047257353575957e-09 -9.593626322119264268e-09 -9.254722649767374565e-09 -8.922157681036346191e-09 -8.595752867882722843e-09 -8.275329652412055041e-09 -7.960709481063313862e-09 -7.651713798198545599e-09 -7.348164051329912074e-09 -7.049881687308042378e-09 -6.756688151745203431e-09 -6.468404889249928114e-09 -6.184853346539014311e-09 -5.905854966585374281e-09 -5.631231196414125900e-09 -5.360803481673111475e-09 -5.094393269302745588e-09 -4.831822001987102263e-09 -4.572911122800737711e-09 -4.317482078253773777e-09 -4.065356315973568766e-09 -3.816355274500511522e-09 -3.570300402047260114e-09 -3.327013145557617259e-09 -3.086314948183219165e-09 -2.848027252383676124e-09 -2.611971504653016357e-09 -2.377969147071379394e-09 -2.145841627453317821e-09 -1.915410386985351410e-09 -1.686496871689711029e-09 -1.458922525178818811e-09 -1.232508791441179518e-09 -1.007077115136148005e-09 -7.824489388986703860e-10 -5.584457088255164272e-10 -3.348888701096717417e-10 -1.115998638605761035e-10 1.115998638732815977e-10 3.348888704162976686e-10 5.584457096530676167e-10 7.824489393281160903e-10 1.007077114542377909e-09 1.232508791159117546e-09 1.458922524945884750e-09 1.686496872116615634e-09 1.915410388163574240e-09 2.145841628038617588e-09 2.377969148160663764e-09 2.611971503809371541e-09 2.848027251985570639e-09 3.086314946838977877e-09 3.327013145356023417e-09 3.570300401781291769e-09 3.816355276344502248e-09 4.065356316803661054e-09 4.317482077769270931e-09 4.572911123097199242e-09 4.831822000546299220e-09 5.094393268676788240e-09 5.360803481810330813e-09 5.631231195783086355e-09 5.905854966321100001e-09 6.184853345553067961e-09 6.468404886592785759e-09 6.756688147222047493e-09 7.049881684566196727e-09 7.348164050570970553e-09 7.651713798242591312e-09 7.960709478978765779e-09 8.275329652191826474e-09 8.595752867926768556e-09 8.922157680599277190e-09 9.254722650104493678e-09 9.593626324080992574e-09 9.939047258023579019e-09 1.029116400047630579e-08 1.065015511093197353e-08 1.101619914007424025e-08 1.138947463909752481e-08 1.177016016111901087e-08 1.215843425570766107e-08 1.255447548614251334e-08 1.295846240068640551e-08 1.337057354312137114e-08 1.379098747054734278e-08 1.421988273139148268e-08 1.465743787680416399e-08
-5.773314897170351019e-19 -5.656681896662415413e-19 -5.540048919193937731e-19 -5.423415964290678910e-19 -5.306783031477337734e-19 -5.190150120277890768e-19 -5.073517230220948359e-19 -4.956884360828170178e-19 -4.840251511623146637e-19 -4.723618682135373051e-19 -4.606985871886429162e-19 -4.490353080401031090e-19 -4.373720307205882515e-19 -4.257087551825021627e-19 -4.140454813784145327e-19 -4.023822092607467066e-19 -3.907189387820207075e-19 -3.790556698947984736e-19 -3.673924025514682240e-19 -3.557291367046327264e-19 -3.440658723066360000e-19 -3.324026093100766718e-19 -3.207393476673659758e-19 -3.090760873311881948e-19 -2.974128282539146479e-19 -2.857495703879336987e-19 -2.740863136860400821e-19 -2.624230581003607167e-19 -2.507598035835965928e-19 -2.390965500882012665e-19 -2.274332975666998427e-19 -2.157700459714759905e-19 -2.041067952552403056e-19 -1.924435453702282810e-19 -1.807802962690887623e-19 -1.691170479043656320e-19 -1.574538002283658591e-19 -1.457905531938070208e-19 -1.341273067530285381e-19 -1.224640608585602583e-19 -1.108008154629065341e-19 -9.913757051855168857e-20 -8.747432597801291799e-20 -7.581108179380478257e-20 -6.414783791833705986e-20 -5.248459430414934712e-20 -4.082135090374773646e-20 -2.915810766962875655e-20 -1.749486455427595408e-20 -5.831621510169328560e-21 5.831621510169198409e-21 1.749486455427395894e-20 2.915810766962539821e-20 4.082135090375720963e-20 5.248459430413517348e-20 6.414783791831725889e-20 7.581108179376016118e-20 8.747432597801667356e-20 9.913757051856263026e-20 1.108008154628925470e-19 1.224640608585077045e-19 1.341273067530025140e-19 1.457905531938255820e-19 1.574538002284687519e-19 1.691170479043682801e-19 1.807802962691251383e-19 1.924435453702376699e-19 2.041067952551692388e-19 2.157700459714664090e-19 2.274332975666861205e-19 2.390965500881788295e-19 2.507598035836068483e-19 2.624230581002623017e-19 2.740863136860056561e-19 2.857495703880057285e-19 2.974128282539408887e-19 3.090760873311978726e-19 3.207393476673818166e-19 3.324026093100821607e-19 3.440658723066299815e-19 3.557291367045999856e-19 3.673924025514810796e-19 3.790556698948836960e-19 3.907189387820862854e-19 4.023822092608185919e-19 4.140454813784245475e-19 4.257087551824622478e-19 4.373720307206109774e-19 4.490353080400291533e-19 4.606985871885924569e-19 4.723618682134618086e-19 4.840251511623835157e-19 4.956884360828585216e-19 5.073517230220814507e-19 5.190150120278735288e-19 5.306783031477355068e-19 5.423415964290603798e-19 5.540048919193659434e-19 5.656681896661958968e-19 5.773314897170364500e-19
0.000000000000000000e+00 0.000000000000000000e+00 0.000000000000000000e+00 0.000000000000000000e+00 0.000000000000000000e+00 0.000000000000000000e+00 0.000000000000000000e+00 0.000000000000000000e+00 0.000000000000000000e+00 0.000000000000000000e+00 0.000000000000000000e+00 0.000000000000000000e+00 0.000000000000000000e+00 0.000000000000000000e+00 0.000000000000000000e+00 0.000000000000000000e+00 0.000000000000000000e+00 0.000000000000000000e+00 0.000000000000000000e+00 0.000000000000000000e+00 0.000000000000000000e+00 0.000000000000000000e+00 0.000000000000000000e+00 0.000000000000000000e+00 0.000000000000000000e+00 0.000000000000000000e+00 0.000000000000000000e+00 0.000000000000000000e+00 0.000000000000000000e+00 0.000000000000000000e+00 0.000000000000000000e+00 0.000000000000000000e+00 0.000000000000000000e+00 0.000000000000000000e+00 0.000000000000000000e+00 0.000000000000000000e+00 0.000000000000000000e+00 0.000000000000000000e+00 0.000000000000000000e+00 0.000000000000000000e+00 0.000000000000000000e+00 0.000000000000000000e+00 0.000000000000000000e+00 0.000000000000000000e+00 0.000000000000000000e+00 0.000000000000000000e+00 0.000000000000000000e+00 0.000000000000000000e+00 0.000000000000000000e+00 0.000000000000000000e+00 0.000000000000000000e+00 0.000000000000000000e+00 0.000000000000000000e+00 0.000000000000000000e+00 0.000000000000000000e+00 0.000000000000000000e+00 0.000000000000000000e+00 0.000000000000000000e+00 0.000000000000000000e+00 0.000000000000000000e+00 0.000000000000000000e+00 0.000000000000000000e+00 0.000000000000000000e+00 0.000000000000000000e+00 0.000000000000000000e+00 0.000000000000000000e+00 0.000000000000000000e+00 0.000000000000000000e+00 0.000000000000000000e+00 0.000000000000000000e+00 0.000000000000000000e+00 0.000000000000000000e+00 0.000000000000000000e+00 0.000000000000000000e+00 0.000000000000000000e+00 0.000000000000000000e+00 0.000000000000000000e+00 0.000000000000000000e+00 0.000000000000000000e+00 0.000000000000000000e+00 0.000000000000000000e+00 0.000000000000000000e+00 0.000000000000000000e+00 0.000000000000000000e+00 0.000000000000000000e+00 0.000000000000000000e+00 0.000000000000000000e+00 0.000000000000000000e+00 0.000000000000000000e+00 0.000000000000000000e+00 0.000000000000000000e+00 0.000000000000000000e+00 0.000000000000000000e+00 0.000000000000000000e+00 0.000000000000000000e+00 0.000000000000000000e+00 0.000000000000000000e+00 0.000000000000000000e+00 0.000000000000000000e+00 0.000000000000000000e+00
