# 
#                 ----------------------------------------------------
#                 Data from a 3D direct N-body simulation. 
# 
#                 rows are i-particle; 
#                 coumns are :mass, tag, x ,y, z, vx, vy, vz, ax, ay, az
# 
#                 NTHU, Computational Physics Lab
# 
#                 ----------------------------------------------------
#                 Time = 0.1
1.000000000000000000e+00 2.000000000000000000e+00 3.000000000000000000e+00 4.000000000000000000e+00 5.000000000000000000e+00 6.000000000000000000e+00 7.000000000000000000e+00 8.000000000000000000e+00 9.000000000000000000e+00 1.000000000000000000e+01 1.100000000000000000e+01 1.200000000000000000e+01 1.300000000000000000e+01 1.400000000000000000e+01 1.500000000000000000e+01 1.600000000000000000e+01 1.700000000000000000e+01 1.800000000000000000e+01 1.900000000000000000e+01 2.000000000000000000e+01 2.100000000000000000e+01 2.200000000000000000e+01 2.300000000000000000e+01 2.400000000000000000e+01 2.500000000000000000e+01 2.600000000000000000e+01 2.700000000000000000e+01 2.800000000000000000e+01 2.900000000000000000e+01 3.000000000000000000e+01 3.100000000000000000e+01 3.200000000000000000e+01 3.300000000000000000e+01 3.400000000000000000e+01 3.500000000000000000e+01 3.600000000000000000e+01 3.700000000000000000e+01 3.800000000000000000e+01 3.900000000000000000e+01 4.000000000000000000e+01 4.100000000000000000e+01 4.200000000000000000e+01 4.300000000000000000e+01 4.400000000000000000e+01 4.500000000000000000e+01 4.600000000000000000e+01 4.700000000000000000e+01 4.800000000000000000e+01 4.900000000000000000e+01 5.000000000000000000e+01 5.100000000000000000e+01 5.200000000000000000e+01 5.300000000000000000e+01 5.400000000000000000e+01 5.500000000000000000e+01 5.600000000000000000e+01 5.700000000000000000e+01 5.800000000000000000e+01 5.900000000000000000e+01 6.000000000000000000e+01 6.100000000000000000e+01 6.200000000000000000e+01 6.300000000000000000e+01 6.400000000000000000e+01 6.500000000000000000e+01 6.600000000000000000e+01 6.700000000000000000e+01 6.800000000000000000e+01 6.900000000000000000e+01 7.000000000000000000e+01 7.100000000000000000e+01 7.200000000000000000e+01 7.300000000000000000e+01 7.400000000000000000e+01 7.500000000000000000e+01 7.600000000000000000e+01 7.700000000000000000e+01 7.800000000000000000e+01 7.900000000000000000e+01 8.000000000000000000e+01 8.100000000000000000e+01 8.200000000000000000e+01 8.300000000000000000e+01 8.400000000000000000e+01 8.500000000000000000e+01 8.600000000000000000e+01 8.700000000000000000e+01 8.800000000000000000e+01 8.900000000000000000e+01 9.000000000000000000e+01 9.100000000000000000e+01 9.200000000000000000e+01 9.300000000000000000e+01 9.400000000000000000e+01 9.500000000000000000e+01 9.600000000000000000e+01 9.700000000000000000e+01 9.800000000000000000e+01 9.900000000000000000e+01 1.000000000000000000e+02
1.000000000000000000e+00 1.000000000000000000e+00 1.000000000000000000e+00 1.000000000000000000e+00 1.000000000000000000e+00 1.000000000000000000e+00 1.000000000000000000e+00 1.000000000000000000e+00 1.000000000000000000e+00 1.000000000000000000e+00 1.000000000000000000e+00 1.000000000000000000e+00 1.000000000000000000e+00 1.000000000000000000e+00 1.000000000000000000e+00 1.000000000000000000e+00 1.000000000000000000e+00 1.000000000000000000e+00 1.000000000000000000e+00 1.000000000000000000e+00 1.000000000000000000e+00 1.000000000000000000e+00 1.000000000000000000e+00 1.000000000000000000e+00 1.000000000000000000e+00 1.000000000000000000e+00 1.000000000000000000e+00 1.000000000000000000e+00 1.000000000000000000e+00 1.000000000000000000e+00 1.000000000000000000e+00 1.000000000000000000e+00 1.000000000000000000e+00 1.000000000000000000e+00 1.000000000000000000e+00 1.000000000000000000e+00 1.000000000000000000e+00 1.000000000000000000e+00 1.000000000000000000e+00 1.000000000000000000e+00 1.000000000000000000e+00 1.000000000000000000e+00 1.000000000000000000e+00 1.000000000000000000e+00 1.000000000000000000e+00 1.000000000000000000e+00 1.000000000000000000e+00 1.000000000000000000e+00 1.000000000000000000e+00 1.000000000000000000e+00 1.000000000000000000e+00 1.000000000000000000e+00 1.000000000000000000e+00 1.000000000000000000e+00 1.000000000000000000e+00 1.000000000000000000e+00 1.000000000000000000e+00 1.000000000000000000e+00 1.000000000000000000e+00 1.000000000000000000e+00 1.000000000000000000e+00 1.000000000000000000e+00 1.000000000000000000e+00 1.000000000000000000e+00 1.000000000000000000e+00 1.000000000000000000e+00 1.000000000000000000e+00 1.000000000000000000e+00 1.000000000000000000e+00 1.000000000000000000e+00 1.000000000000000000e+00 1.000000000000000000e+00 1.000000000000000000e+00 1.000000000000000000e+00 1.000000000000000000e+00 1.000000000000000000e+00 1.000000000000000000e+00 1.000000000000000000e+00 1.000000000000000000e+00 1.000000000000000000e+00 1.000000000000000000e+00 1.000000000000000000e+00 1.000000000000000000e+00 1.000000000000000000e+00 1.000000000000000000e+00 1.000000000000000000e+00 1.000000000000000000e+00 1.000000000000000000e+00 1.000000000000000000e+00 1.000000000000000000e+00 1.000000000000000000e+00 1.000000000000000000e+00 1.000000000000000000e+00 1.000000000000000000e+00 1.000000000000000000e+00 1.000000000000000000e+00 1.000000000000000000e+00 1.000000000000000000e+00 1.000000000000000000e+00 1.000000000000000000e+00
7.703849678803143767e-06 7.548216355058277702e-06 7.392583031123645763e-06 7.236949707003149385e-06 7.081316382700697625e-06 6.925683058220218173e-06 6.770049733565607383e-06 6.614416408740792098e-06 6.458783083749683916e-06 6.303149758596188508e-06 6.147516433284218317e-06 5.991883107817690024e-06 5.836249782200516921e-06 5.680616456436623312e-06 5.524983130529888609e-06 5.369349804484257442e-06 5.213716478303627859e-06 5.058083151991922468e-06 4.902449825553036774e-06 4.746816498990909480e-06 4.591183172309433550e-06 4.435549845512529899e-06 4.279916518604107585e-06 4.124283191588080745e-06 3.968649864468358439e-06 3.813016537248862851e-06 3.657383209933502615e-06 3.501749882526191447e-06 3.346116555030841792e-06 3.190483227451363554e-06 3.034849899791673413e-06 2.879216572055680428e-06 2.723583244247304241e-06 2.567949916370454335e-06 2.412316588429040613e-06 2.256683260426979755e-06 2.101049932368184207e-06 1.945416604256559638e-06 1.789783276096030774e-06 1.634149947890498415e-06 1.478516619643885381e-06 1.322883291360096706e-06 1.167249963043042507e-06 1.011616634696648780e-06 8.559833063248208771e-07 7.003499779314727259e-07 5.447166495205174067e-07 3.890833210958649295e-07 2.334499926614327952e-07 7.781666422112898880e-08 -7.781666422112954467e-08 -2.334499926614327158e-07 -3.890833210958669942e-07 -5.447166495205171950e-07 -7.003499779314732553e-07 -8.559833063248211947e-07 -1.011616634696651956e-06 -1.167249963043046530e-06 -1.322883291360093953e-06 -1.478516619643882628e-06 -1.634149947890497568e-06 -1.789783276096028445e-06 -1.945416604256560485e-06 -2.101049932368180819e-06 -2.256683260426981449e-06 -2.412316588429043154e-06 -2.567949916370456029e-06 -2.723583244247305935e-06 -2.879216572055680428e-06 -3.034849899791672566e-06 -3.190483227451363554e-06 -3.346116555030841792e-06 -3.501749882526191447e-06 -3.657383209933504309e-06 -3.813016537248865392e-06 -3.968649864468358439e-06 -4.124283191588078204e-06 -4.279916518604105043e-06 -4.435549845512520582e-06 -4.591183172309427621e-06 -4.746816498990904398e-06 -4.902449825553035080e-06 -5.058083151991911456e-06 -5.213716478303618541e-06 -5.369349804484251513e-06 -5.524983130529888609e-06 -5.680616456436618230e-06 -5.836249782200527932e-06 -5.991883107817697647e-06 -6.147516433284216622e-06 -6.303149758596180037e-06 -6.458783083749672058e-06 -6.614416408740784474e-06 -6.770049733565600607e-06 -6.925683058220208009e-06 -7.081316382700689154e-06 -7.236949707003140068e-06 -7.392583031123637293e-06 -7.548216355058276008e-06 -7.703849678803142073e-06
-7.916533886886073216e-22 -7.756603910769854212e-22 -7.596673934568116584e-22 -7.436743958282638619e-22 -7.276813981915182618e-22 -7.116884005467511823e-22 -6.956954028941384774e-22 -6.797024052338556248e-22 -6.637094075660801712e-22 -6.477164098909883468e-22 -6.317234122087571339e-22 -6.157304145195605997e-22 -5.997374168235775135e-22 -5.837444191209813782e-22 -5.677514214119510570e-22 -5.517584236966618396e-22 -5.357654259752898621e-22 -5.197724282480119190e-22 -5.037794305150040521e-22 -4.877864327764427737e-22 -4.717934350325032796e-22 -4.558004372833636805e-22 -4.398074395291983259e-22 -4.238144417701852326e-22 -4.078214440064999724e-22 -3.918284462383197159e-22 -3.758354484658195646e-22 -3.598424506891758428e-22 -3.438494529085659090e-22 -3.278564551241649589e-22 -3.118634573361497868e-22 -2.958704595446969050e-22 -2.798774617499817914e-22 -2.638844639521817103e-22 -2.478914661514727039e-22 -2.318984683480306731e-22 -2.159054705420322712e-22 -1.999124727336537754e-22 -1.839194749230713688e-22 -1.679264771104616106e-22 -1.519334792960006368e-22 -1.359404814798647011e-22 -1.199474836622305274e-22 -1.039544858432735699e-22 -8.796148802317085798e-23 -7.196849020209857485e-23 -5.597549238023271548e-23 -3.998249455774988028e-23 -2.398949673482635811e-23 -7.996498911638229232e-24 7.996498911637886870e-24 2.398949673482602310e-23 3.998249455774978624e-23 5.597549238023263320e-23 7.196849020209852783e-23 8.796148802317102255e-23 1.039544858432734758e-22 1.199474836622301747e-22 1.359404814798647952e-22 1.519334792960007308e-22 1.679264771104616576e-22 1.839194749230714864e-22 1.999124727336540576e-22 2.159054705420323653e-22 2.318984683480310492e-22 2.478914661514724688e-22 2.638844639521812871e-22 2.798774617499817914e-22 2.958704595446966229e-22 3.118634573361497398e-22 3.278564551241644887e-22 3.438494529085657209e-22 3.598424506891757958e-22 3.758354484658191414e-22 3.918284462383190576e-22 4.078214440064999724e-22 4.238144417701854207e-22 4.398074395291986080e-22 4.558004372833631163e-22 4.717934350325026213e-22 4.877864327764417393e-22 5.037794305150032057e-22 5.197724282480114488e-22 5.357654259752892979e-22 5.517584236966614634e-22 5.677514214119504927e-22 5.837444191209808139e-22 5.997374168235765731e-22 6.157304145195606937e-22 6.317234122087573219e-22 6.477164098909885348e-22 6.637094075660810176e-22 6.797024052338570354e-22 6.956954028941387595e-22 7.116884005467524048e-22 7.276813981915195784e-22 7.436743958282650844e-22 7.596673934568126928e-22 7.756603910769860795e-22 7.916533886886076037e-22
0.000000000000000000e+00 0.000000000000000000e+00 0.000000000000000000e+00 0.000000000000000000e+00 0.000000000000000000e+00 0.000000000000000000e+00 0.000000000000000000e+00 0.000000000000000000e+00 0.000000000000000000e+00 0.000000000000000000e+00 0.000000000000000000e+00 0.000000000000000000e+00 0.000000000000000000e+00 0.000000000000000000e+00 0.000000000000000000e+00 0.000000000000000000e+00 0.000000000000000000e+00 0.000000000000000000e+00 0.000000000000000000e+00 0.000000000000000000e+00 0.000000000000000000e+00 0.000000000000000000e+00 0.000000000000000000e+00 0.000000000000000000e+00 0.000000000000000000e+00 0.000000000000000000e+00 0.000000000000000000e+00 0.000000000000000000e+00 0.000000000000000000e+00 0.000000000000000000e+00 0.000000000000000000e+00 0.000000000000000000e+00 0.000000000000000000e+00 0.000000000000000000e+00 0.000000000000000000e+00 0.000000000000000000e+00 0.000000000000000000e+00 0.000000000000000000e+00 0.000000000000000000e+00 0.000000000000000000e+00 0.000000000000000000e+00 0.000000000000000000e+00 0.000000000000000000e+00 0.000000000000000000e+00 0.000000000000000000e+00 0.000000000000000000e+00 0.000000000000000000e+00 0.000000000000000000e+00 0.000000000000000000e+00 0.000000000000000000e+00 0.000000000000000000e+00 0.000000000000000000e+00 0.000000000000000000e+00 0.000000000000000000e+00 0.000000000000000000e+00 0.000000000000000000e+00 0.000000000000000000e+00 0.000000000000000000e+00 0.000000000000000000e+00 0.000000000000000000e+00 0.000000000000000000e+00 0.000000000000000000e+00 0.000000000000000000e+00 0.000000000000000000e+00 0.000000000000000000e+00 0.000000000000000000e+00 0.000000000000000000e+00 0.000000000000000000e+00 0.000000000000000000e+00 0.000000000000000000e+00 0.000000000000000000e+00 0.000000000000000000e+00 0.000000000000000000e+00 0.000000000000000000e+00 0.000000000000000000e+00 0.000000000000000000e+00 0.000000000000000000e+00 0.000000000000000000e+00 0.000000000000000000e+00 0.000000000000000000e+00 0.000000000000000000e+00 0.000000000000000000e+00 0.000000000000000000e+00 0.000000000000000000e+00 0.000000000000000000e+00 0.000000000000000000e+00 0.000000000000000000e+00 0.000000000000000000e+00 0.000000000000000000e+00 0.000000000000000000e+00 0.000000000000000000e+00 0.000000000000000000e+00 0.000000000000000000e+00 0.000000000000000000e+00 0.000000000000000000e+00 0.000000000000000000e+00 0.000000000000000000e+00 0.000000000000000000e+00 0.000000000000000000e+00 0.000000000000000000e+00
1.980989974910511698e-04 1.940969975659491366e-04 1.900949976393647551e-04 1.860929977113285456e-04 1.820909977818710554e-04 1.780889978510229947e-04 1.740869979188145583e-04 1.700849979852766462e-04 1.660829980504399141e-04 1.620809981143346112e-04 1.580789981769913663e-04 1.540769982384410520e-04 1.500749982987138905e-04 1.460729983578407543e-04 1.420709984158517573e-04 1.380689984727777992e-04 1.340669985286493460e-04 1.300649985834970537e-04 1.260629986373512797e-04 1.220609986902428833e-04 1.180589987422021951e-04 1.140569987932598707e-04 1.100549988434464848e-04 1.060529988927924898e-04 1.020509989413285551e-04 9.804899898908526882e-05 9.404699903609309698e-05 9.004499908238270897e-05 8.604299912798470638e-05 8.204099917292951465e-05 7.803899921724773538e-05 7.403699926096997017e-05 7.003499930412677998e-05 6.603299934674876641e-05 6.203099938886636844e-05 5.802899943051025543e-05 5.402699947171102222e-05 5.002499951249906712e-05 4.602299955290513404e-05 4.202099959295966196e-05 3.801899963269332025e-05 3.401699967213658176e-05 3.001499971131997696e-05 2.601299975027419892e-05 2.201099978902975099e-05 1.800899982761722124e-05 1.400699986606716044e-05 1.000499990441008041e-05 6.002999942676619191e-06 2.000999980897295371e-06 -2.000999980897298759e-06 -6.002999942676620038e-06 -1.000499990441009905e-05 -1.400699986606715027e-05 -1.800899982761723140e-05 -2.201099978902976116e-05 -2.601299975027423619e-05 -3.001499971132001084e-05 -3.401699967213655466e-05 -3.801899963269329992e-05 -4.202099959295968229e-05 -4.602299955290513404e-05 -5.002499951249907389e-05 -5.402699947171095445e-05 -5.802899943051028253e-05 -6.203099938886640909e-05 -6.603299934674876641e-05 -7.003499930412683419e-05 -7.403699926096998373e-05 -7.803899921724774893e-05 -8.204099917292951465e-05 -8.604299912798470638e-05 -9.004499908238283094e-05 -9.404699903609317830e-05 -9.804899898908529593e-05 -1.020509989413285687e-04 -1.060529988927925304e-04 -1.100549988434464577e-04 -1.140569987932598300e-04 -1.180589987422021544e-04 -1.220609986902428427e-04 -1.260629986373512797e-04 -1.300649985834969452e-04 -1.340669985286492918e-04 -1.380689984727777179e-04 -1.420709984158517573e-04 -1.460729983578407001e-04 -1.500749982987139989e-04 -1.540769982384411062e-04 -1.580789981769913934e-04 -1.620809981143345570e-04 -1.660829980504398057e-04 -1.700849979852765649e-04 -1.740869979188145312e-04 -1.780889978510228049e-04 -1.820909977818709741e-04 -1.860929977113284371e-04 -1.900949976393646738e-04 -1.940969975659491095e-04 -1.980989974910511155e-04
4.479477126457404850e-20 4.388982638463889004e-20 4.298488150506509623e-20 4.207993662584534853e-20 4.117499174697207563e-20 4.027004686843789880e-20 3.936510199023546341e-20 3.846015711235705370e-20 3.755521223479535112e-20 3.665026735754294688e-20 3.574532248059243215e-20 3.484037760393621758e-20 3.393543272756695453e-20 3.303048785147696336e-20 3.212554297565926257e-20 3.122059810010594382e-20 3.031565322480979690e-20 2.941070834976321439e-20 2.850576347495899210e-20 2.760081860038929392e-20 2.669587372604702700e-20 2.579092885192458692e-20 2.488598397801454984e-20 2.398103910430939559e-20 2.307609423080178157e-20 2.217114935748423275e-20 2.126620448434915979e-20 2.036125961138926820e-20 1.945631473859701077e-20 1.855136986596502380e-20 1.764642499348574503e-20 1.674148012115187396e-20 1.583653524895572795e-20 1.493159037689005768e-20 1.402664550494735502e-20 1.312170063312012992e-20 1.221675576140095551e-20 1.131181088978243802e-20 1.040686601825699712e-20 9.501921146817311254e-21 8.596976275455833190e-21 7.692031404165187219e-21 6.787086532937950987e-21 5.882141661766524593e-21 4.977196790643551889e-21 4.072251919561561619e-21 3.167307048513094568e-21 2.262362177490734399e-21 1.357417306486983905e-21 4.524724354944243996e-22 -4.524724354944175347e-22 -1.357417306486980520e-21 -2.262362177490713334e-21 -3.167307048513090054e-21 -4.072251919561557857e-21 -4.977196790643557907e-21 -5.882141661766499014e-21 -6.787086532937910362e-21 -7.692031404165202265e-21 -8.596976275455857264e-21 -9.501921146817323291e-21 -1.040686601825700464e-20 -1.131181088978241846e-20 -1.221675576140097357e-20 -1.312170063312011789e-20 -1.402664550494733095e-20 -1.493159037689003662e-20 -1.583653524895572795e-20 -1.674148012115185591e-20 -1.764642499348574503e-20 -1.855136986596497866e-20 -1.945631473859698970e-20 -2.036125961138925617e-20 -2.126620448434912368e-20 -2.217114935748416354e-20 -2.307609423080178458e-20 -2.398103910430942568e-20 -2.488598397801454382e-20 -2.579092885192459896e-20 -2.669587372604706010e-20 -2.760081860038933605e-20 -2.850576347495894997e-20 -2.941070834976326253e-20 -3.031565322480981495e-20 -3.122059810010594984e-20 -3.212554297565916628e-20 -3.303048785147696938e-20 -3.393543272756677397e-20 -3.484037760393615138e-20 -3.574532248059240808e-20 -3.665026735754299503e-20 -3.755521223479539927e-20 -3.846015711235707777e-20 -3.936510199023542730e-20 -4.027004686843797103e-20 -4.117499174697217193e-20 -4.207993662584535455e-20 -4.298488150506515642e-20 -4.388982638463889004e-20 -4.479477126457400035e-20
0.000000000000000000e+00 0.000000000000000000e+00 0.000000000000000000e+00 0.000000000000000000e+00 0.000000000000000000e+00 0.000000000000000000e+00 0.000000000000000000e+00 0.000000000000000000e+00 0.000000000000000000e+00 0.000000000000000000e+00 0.000000000000000000e+00 0.000000000000000000e+00 0.000000000000000000e+00 0.000000000000000000e+00 0.000000000000000000e+00 0.000000000000000000e+00 0.000000000000000000e+00 0.000000000000000000e+00 0.000000000000000000e+00 0.000000000000000000e+00 0.000000000000000000e+00 0.000000000000000000e+00 0.000000000000000000e+00 0.000000000000000000e+00 0.000000000000000000e+00 0.000000000000000000e+00 0.000000000000000000e+00 0.000000000000000000e+00 0.000000000000000000e+00 0.000000000000000000e+00 0.000000000000000000e+00 0.000000000000000000e+00 0.000000000000000000e+00 0.000000000000000000e+00 0.000000000000000000e+00 0.000000000000000000e+00 0.000000000000000000e+00 0.000000000000000000e+00 0.000000000000000000e+00 0.000000000000000000e+00 0.000000000000000000e+00 0.000000000000000000e+00 0.000000000000000000e+00 0.000000000000000000e+00 0.000000000000000000e+00 0.000000000000000000e+00 0.000000000000000000e+00 0.000000000000000000e+00 0.000000000000000000e+00 0.000000000000000000e+00 0.000000000000000000e+00 0.000000000000000000e+00 0.000000000000000000e+00 0.000000000000000000e+00 0.000000000000000000e+00 0.000000000000000000e+00 0.000000000000000000e+00 0.000000000000000000e+00 0.000000000000000000e+00 0.000000000000000000e+00 0.000000000000000000e+00 0.000000000000000000e+00 0.000000000000000000e+00 0.000000000000000000e+00 0.000000000000000000e+00 0.000000000000000000e+00 0.000000000000000000e+00 0.000000000000000000e+00 0.000000000000000000e+00 0.000000000000000000e+00 0.000000000000000000e+00 0.000000000000000000e+00 0.000000000000000000e+00 0.000000000000000000e+00 0.000000000000000000e+00 0.000000000000000000e+00 0.000000000000000000e+00 0.000000000000000000e+00 0.000000000000000000e+00 0.000000000000000000e+00 0.000000000000000000e+00 0.000000000000000000e+00 0.000000000000000000e+00 0.000000000000000000e+00 0.000000000000000000e+00 0.000000000000000000e+00 0.000000000000000000e+00 0.000000000000000000e+00 0.000000000000000000e+00 0.000000000000000000e+00 0.000000000000000000e+00 0.000000000000000000e+00 0.000000000000000000e+00 0.000000000000000000e+00 0.000000000000000000e+00 0.000000000000000000e+00 0.000000000000000000e+00 0.000000000000000000e+00 0.000000000000000000e+00 0.000000000000000000e+00
1.320659992394663694e-03 1.293979992621700119e-03 1.267299992844244478e-03 1.240619993062387627e-03 1.213939993276222373e-03 1.187259993485842392e-03 1.160579993691337021e-03 1.133899993892802322e-03 1.107219994090330884e-03 1.080539994284013565e-03 1.053859994473943604e-03 1.027179994660215546e-03 1.000499994842919595e-03 9.738199950221505113e-04 9.471399951979979576e-04 9.204599953705570187e-04 8.937799955399194181e-04 8.670999957061782887e-04 8.404199958694256794e-04 8.137399960297551568e-04 7.870599961872586613e-04 7.603799963420291089e-04 7.336999964941589821e-04 7.070199966437406549e-04 6.803399967908670435e-04 6.536599969356309556e-04 6.269799970781245483e-04 6.002999972184416052e-04 5.736199973566742834e-04 5.469399974929146317e-04 5.202599976272557830e-04 4.935799977597903282e-04 4.668999978906109125e-04 4.402199980198101808e-04 4.135399981474806698e-04 3.868599982737150247e-04 3.601799983986062699e-04 3.334999985222459663e-04 3.068199986447283311e-04 2.801399987661448709e-04 2.534599988865890441e-04 2.267799990061528180e-04 2.000999991249287834e-04 1.734199992430100193e-04 1.467399993604891976e-04 1.200599994774588416e-04 9.337999959401156920e-05 6.669999971023980864e-05 4.001999982623650993e-05 1.333999994209429274e-05 -1.333999994209431815e-05 -4.001999982623655736e-05 -6.669999971023990351e-05 -9.337999959401143367e-05 -1.200599994774588687e-04 -1.467399993604891705e-04 -1.734199992430103174e-04 -2.000999991249288918e-04 -2.267799990061526824e-04 -2.534599988865890983e-04 -2.801399987661452504e-04 -3.068199986447283853e-04 -3.334999985222459663e-04 -3.601799983986055109e-04 -3.868599982737146994e-04 -4.135399981474802904e-04 -4.402199980198101266e-04 -4.668999978906112919e-04 -4.935799977597903282e-04 -5.202599976272558914e-04 -5.469399974929149569e-04 -5.736199973566742834e-04 -6.002999972184424726e-04 -6.269799970781251989e-04 -6.536599969356311724e-04 -6.803399967908671520e-04 -7.070199966437408718e-04 -7.336999964941593073e-04 -7.603799963420291089e-04 -7.870599961872586613e-04 -8.137399960297550484e-04 -8.404199958694256794e-04 -8.670999957061778550e-04 -8.937799955399190928e-04 -9.204599953705565850e-04 -9.471399951979981744e-04 -9.738199950221504029e-04 -1.000499994842920246e-03 -1.027179994660215980e-03 -1.053859994473944038e-03 -1.080539994284013781e-03 -1.107219994090330667e-03 -1.133899993892801671e-03 -1.160579993691337021e-03 -1.187259993485841525e-03 -1.213939993276222156e-03 -1.240619993062387627e-03 -1.267299992844244261e-03 -1.293979992621700553e-03 -1.320659992394663260e-03
6.775379224856087764e-19 6.638502876204340520e-19 6.501626527593901586e-19 6.364750179023933180e-19 6.227873830493581153e-19 6.090997482001987503e-19 5.954121133548326969e-19 5.817244785131695328e-19 5.680368436751276947e-19 5.543492088406212862e-19 5.406615740095667220e-19 5.269739391818766611e-19 5.132863043574665551e-19 4.995986695362477151e-19 4.859110347181429112e-19 4.722233999030603729e-19 4.585357650909179593e-19 4.448481302816279441e-19 4.311604954751092459e-19 4.174728606712711533e-19 4.037852258700328735e-19 3.900975910713075952e-19 3.764099562750101924e-19 3.627223214810553944e-19 3.490346866893589901e-19 3.353470518998350829e-19 3.216594171123972467e-19 3.079717823269620406e-19 2.942841475434429903e-19 2.805965127617564624e-19 2.669088779818155011e-19 2.532212432035367618e-19 2.395336084268321332e-19 2.258459736516194744e-19 2.121583388778123111e-19 1.984707041053251802e-19 1.847830693340734851e-19 1.710954345639721481e-19 1.574077997949349595e-19 1.437201650268782619e-19 1.300325302597156292e-19 1.163448954933624166e-19 1.026572607277346657e-19 8.896962596274439764e-20 7.528199119830827981e-20 6.159435643434062036e-20 4.790672167075607653e-20 3.421908690747011804e-20 2.053145214439684241e-20 6.843817381451513219e-21 -6.843817381451302571e-21 -2.053145214439668292e-20 -3.421908690746984721e-20 -4.790672167075607653e-20 -6.159435643434065648e-20 -7.528199119830840018e-20 -8.896962596274397635e-20 -1.026572607277339916e-19 -1.163448954933627536e-19 -1.300325302597158940e-19 -1.437201650268784786e-19 -1.574077997949352244e-19 -1.710954345639720999e-19 -1.847830693340737259e-19 -1.984707041053251561e-19 -2.121583388778119018e-19 -2.258459736516188485e-19 -2.395336084268319888e-19 -2.532212432035365211e-19 -2.669088779818155493e-19 -2.805965127617556921e-19 -2.942841475434427015e-19 -3.079717823269619924e-19 -3.216594171123968133e-19 -3.353470518998339755e-19 -3.490346866893589419e-19 -3.627223214810560685e-19 -3.764099562750104331e-19 -3.900975910713079322e-19 -4.037852258700329216e-19 -4.174728606712710570e-19 -4.311604954751085718e-19 -4.448481302816287145e-19 -4.585357650909179593e-19 -4.722233999030601803e-19 -4.859110347181413705e-19 -4.995986695362477151e-19 -5.132863043574636662e-19 -5.269739391818755055e-19 -5.406615740095665294e-19 -5.543492088406221529e-19 -5.680368436751285614e-19 -5.817244785131703995e-19 -5.954121133548321192e-19 -6.090997482002001947e-19 -6.227873830493591745e-19 -6.364750179023936069e-19 -6.501626527593910252e-19 -6.638502876204340520e-19 -6.775379224856081023e-19
0.000000000000000000e+00 0.000000000000000000e+00 0.000000000000000000e+00 0.000000000000000000e+00 0.000000000000000000e+00 0.000000000000000000e+00 0.000000000000000000e+00 0.000000000000000000e+00 0.000000000000000000e+00 0.000000000000000000e+00 0.000000000000000000e+00 0.000000000000000000e+00 0.000000000000000000e+00 0.000000000000000000e+00 0.000000000000000000e+00 0.000000000000000000e+00 0.000000000000000000e+00 0.000000000000000000e+00 0.000000000000000000e+00 0.000000000000000000e+00 0.000000000000000000e+00 0.000000000000000000e+00 0.000000000000000000e+00 0.000000000000000000e+00 0.000000000000000000e+00 0.000000000000000000e+00 0.000000000000000000e+00 0.000000000000000000e+00 0.000000000000000000e+00 0.000000000000000000e+00 0.000000000000000000e+00 0.000000000000000000e+00 0.000000000000000000e+00 0.000000000000000000e+00 0.000000000000000000e+00 0.000000000000000000e+00 0.000000000000000000e+00 0.000000000000000000e+00 0.000000000000000000e+00 0.000000000000000000e+00 0.000000000000000000e+00 0.000000000000000000e+00 0.000000000000000000e+00 0.000000000000000000e+00 0.000000000000000000e+00 0.000000000000000000e+00 0.000000000000000000e+00 0.000000000000000000e+00 0.000000000000000000e+00 0.000000000000000000e+00 0.000000000000000000e+00 0.000000000000000000e+00 0.000000000000000000e+00 0.000000000000000000e+00 0.000000000000000000e+00 0.000000000000000000e+00 0.000000000000000000e+00 0.000000000000000000e+00 0.000000000000000000e+00 0.000000000000000000e+00 0.000000000000000000e+00 0.000000000000000000e+00 0.000000000000000000e+00 0.000000000000000000e+00 0.000000000000000000e+00 0.000000000000000000e+00 0.000000000000000000e+00 0.000000000000000000e+00 0.000000000000000000e+00 0.000000000000000000e+00 0.000000000000000000e+00 0.000000000000000000e+00 0.000000000000000000e+00 0.000000000000000000e+00 0.000000000000000000e+00 0.000000000000000000e+00 0.000000000000000000e+00 0.000000000000000000e+00 0.000000000000000000e+00 0.000000000000000000e+00 0.000000000000000000e+00 0.000000000000000000e+00 0.000000000000000000e+00 0.000000000000000000e+00 0.000000000000000000e+00 0.000000000000000000e+00 0.000000000000000000e+00 0.000000000000000000e+00 0.000000000000000000e+00 0.000000000000000000e+00 0.000000000000000000e+00 0.000000000000000000e+00 0.000000000000000000e+00 0.000000000000000000e+00 0.000000000000000000e+00 0.000000000000000000e+00 0.000000000000000000e+00 0.000000000000000000e+00 0.000000000000000000e+00 0.000000000000000000e+00
