# 
#                 ----------------------------------------------------
#                 Data from a 3D direct N-body simulation. 
# 
#                 rows are i-particle; 
#                 coumns are :mass, tag, x ,y, z, vx, vy, vz, ax, ay, az
# 
#                 NTHU, Computational Physics Lab
# 
#                 ----------------------------------------------------
#                 Time = 0.8999999999999999
1.000000000000000000e+00 2.000000000000000000e+00 3.000000000000000000e+00 4.000000000000000000e+00 5.000000000000000000e+00 6.000000000000000000e+00 7.000000000000000000e+00 8.000000000000000000e+00 9.000000000000000000e+00 1.000000000000000000e+01 1.100000000000000000e+01 1.200000000000000000e+01 1.300000000000000000e+01 1.400000000000000000e+01 1.500000000000000000e+01 1.600000000000000000e+01 1.700000000000000000e+01 1.800000000000000000e+01 1.900000000000000000e+01 2.000000000000000000e+01 2.100000000000000000e+01 2.200000000000000000e+01 2.300000000000000000e+01 2.400000000000000000e+01 2.500000000000000000e+01 2.600000000000000000e+01 2.700000000000000000e+01 2.800000000000000000e+01 2.900000000000000000e+01 3.000000000000000000e+01 3.100000000000000000e+01 3.200000000000000000e+01 3.300000000000000000e+01 3.400000000000000000e+01 3.500000000000000000e+01 3.600000000000000000e+01 3.700000000000000000e+01 3.800000000000000000e+01 3.900000000000000000e+01 4.000000000000000000e+01 4.100000000000000000e+01 4.200000000000000000e+01 4.300000000000000000e+01 4.400000000000000000e+01 4.500000000000000000e+01 4.600000000000000000e+01 4.700000000000000000e+01 4.800000000000000000e+01 4.900000000000000000e+01 5.000000000000000000e+01 5.100000000000000000e+01 5.200000000000000000e+01 5.300000000000000000e+01 5.400000000000000000e+01 5.500000000000000000e+01 5.600000000000000000e+01 5.700000000000000000e+01 5.800000000000000000e+01 5.900000000000000000e+01 6.000000000000000000e+01 6.100000000000000000e+01 6.200000000000000000e+01 6.300000000000000000e+01 6.400000000000000000e+01 6.500000000000000000e+01 6.600000000000000000e+01 6.700000000000000000e+01 6.800000000000000000e+01 6.900000000000000000e+01 7.000000000000000000e+01 7.100000000000000000e+01 7.200000000000000000e+01 7.300000000000000000e+01 7.400000000000000000e+01 7.500000000000000000e+01 7.600000000000000000e+01 7.700000000000000000e+01 7.800000000000000000e+01 7.900000000000000000e+01 8.000000000000000000e+01 8.100000000000000000e+01 8.200000000000000000e+01 8.300000000000000000e+01 8.400000000000000000e+01 8.500000000000000000e+01 8.600000000000000000e+01 8.700000000000000000e+01 8.800000000000000000e+01 8.900000000000000000e+01 9.000000000000000000e+01 9.100000000000000000e+01 9.200000000000000000e+01 9.300000000000000000e+01 9.400000000000000000e+01 9.500000000000000000e+01 9.600000000000000000e+01 9.700000000000000000e+01 9.800000000000000000e+01 9.900000000000000000e+01 1.000000000000000000e+02
1.000000000000000000e+00 1.000000000000000000e+00 1.000000000000000000e+00 1.000000000000000000e+00 1.000000000000000000e+00 1.000000000000000000e+00 1.000000000000000000e+00 1.000000000000000000e+00 1.000000000000000000e+00 1.000000000000000000e+00 1.000000000000000000e+00 1.000000000000000000e+00 1.000000000000000000e+00 1.000000000000000000e+00 1.000000000000000000e+00 1.000000000000000000e+00 1.000000000000000000e+00 1.000000000000000000e+00 1.000000000000000000e+00 1.000000000000000000e+00 1.000000000000000000e+00 1.000000000000000000e+00 1.000000000000000000e+00 1.000000000000000000e+00 1.000000000000000000e+00 1.000000000000000000e+00 1.000000000000000000e+00 1.000000000000000000e+00 1.000000000000000000e+00 1.000000000000000000e+00 1.000000000000000000e+00 1.000000000000000000e+00 1.000000000000000000e+00 1.000000000000000000e+00 1.000000000000000000e+00 1.000000000000000000e+00 1.000000000000000000e+00 1.000000000000000000e+00 1.000000000000000000e+00 1.000000000000000000e+00 1.000000000000000000e+00 1.000000000000000000e+00 1.000000000000000000e+00 1.000000000000000000e+00 1.000000000000000000e+00 1.000000000000000000e+00 1.000000000000000000e+00 1.000000000000000000e+00 1.000000000000000000e+00 1.000000000000000000e+00 1.000000000000000000e+00 1.000000000000000000e+00 1.000000000000000000e+00 1.000000000000000000e+00 1.000000000000000000e+00 1.000000000000000000e+00 1.000000000000000000e+00 1.000000000000000000e+00 1.000000000000000000e+00 1.000000000000000000e+00 1.000000000000000000e+00 1.000000000000000000e+00 1.000000000000000000e+00 1.000000000000000000e+00 1.000000000000000000e+00 1.000000000000000000e+00 1.000000000000000000e+00 1.000000000000000000e+00 1.000000000000000000e+00 1.000000000000000000e+00 1.000000000000000000e+00 1.000000000000000000e+00 1.000000000000000000e+00 1.000000000000000000e+00 1.000000000000000000e+00 1.000000000000000000e+00 1.000000000000000000e+00 1.000000000000000000e+00 1.000000000000000000e+00 1.000000000000000000e+00 1.000000000000000000e+00 1.000000000000000000e+00 1.000000000000000000e+00 1.000000000000000000e+00 1.000000000000000000e+00 1.000000000000000000e+00 1.000000000000000000e+00 1.000000000000000000e+00 1.000000000000000000e+00 1.000000000000000000e+00 1.000000000000000000e+00 1.000000000000000000e+00 1.000000000000000000e+00 1.000000000000000000e+00 1.000000000000000000e+00 1.000000000000000000e+00 1.000000000000000000e+00 1.000000000000000000e+00 1.000000000000000000e+00 1.000000000000000000e+00
-2.311789685886385631e-05 -2.265080739237144741e-05 -2.218372167569010131e-05 -2.171663963150595737e-05 -2.124956118250350160e-05 -2.078248625136816866e-05 -2.031541476078815790e-05 -1.984834663344833480e-05 -1.938128179202903826e-05 -1.891422015922020238e-05 -1.844716165770628603e-05 -1.798010621016957970e-05 -1.751305373929771354e-05 -1.704600416777289672e-05 -1.657895741828319309e-05 -1.611191341351078470e-05 -1.564487207614200068e-05 -1.517783332886056807e-05 -1.471079709435079666e-05 -1.424376329529749771e-05 -1.377673185438476418e-05 -1.330970269429738019e-05 -1.284267573771989950e-05 -1.237565090733636086e-05 -1.190862812583133156e-05 -1.144160731588790168e-05 -1.097458840019164140e-05 -1.050757130142570856e-05 -1.004055594227498216e-05 -9.573542245423243458e-06 -9.106530133553352130e-06 -8.639519529350810599e-06 -8.172510355499007094e-06 -7.705502534681546683e-06 -7.238495989582617194e-06 -6.771490642886474217e-06 -6.304486417276553413e-06 -5.837483235436968071e-06 -5.370481020050767607e-06 -4.903479693802227939e-06 -4.436479179375326829e-06 -3.969479399453391521e-06 -3.502480276720450599e-06 -3.035481733859929560e-06 -2.568483693555423310e-06 -2.101486078491001091e-06 -1.634488811349798715e-06 -1.167491814816042973e-06 -7.004950115733982261e-07 -2.334983243050341682e-07 2.334983243050394622e-07 7.004950115734642947e-07 1.167491814816124288e-06 1.634488811349971510e-06 2.101486078490746981e-06 2.568483693555365712e-06 3.035481733859777094e-06 3.502480276720399777e-06 3.969479399453533822e-06 4.436479179375482683e-06 4.903479693802404121e-06 5.370481020050625305e-06 5.837483235436961295e-06 6.304486417276411112e-06 6.771490642886575861e-06 7.238495989582630747e-06 7.705502534682034574e-06 8.172510355499183277e-06 8.639519529350783494e-06 9.106530133553568970e-06 9.573542245423013065e-06 1.004055594227476532e-05 1.050757130142538330e-05 1.097458840019145166e-05 1.144160731588802365e-05 1.190862812583138577e-05 1.237565090733608981e-05 1.284267573771933030e-05 1.330970269429717690e-05 1.377673185438473707e-05 1.424376329529760613e-05 1.471079709435037654e-05 1.517783332886074425e-05 1.564487207614208199e-05 1.611191341351116417e-05 1.657895741828332862e-05 1.704600416777349303e-05 1.751305373929776775e-05 1.798010621016914602e-05 1.844716165770604209e-05 1.891422015922036501e-05 1.938128179203006825e-05 1.984834663344814507e-05 2.031541476078883553e-05 2.078248625136895470e-05 2.124956118250396239e-05 2.171663963150593027e-05 2.218372167568991157e-05 2.265080739237136610e-05 2.311789685886388342e-05
-3.480798218508965294e-20 -3.410475456411280655e-20 -3.340152915097072236e-20 -3.269830590016287212e-20 -3.199508476616012749e-20 -3.129186570341552122e-20 -3.058864866649978443e-20 -2.988543360980622199e-20 -2.918222048777970549e-20 -2.847900925501123650e-20 -2.777579986589708096e-20 -2.707259227490579944e-20 -2.636938643655934889e-20 -2.566618230531095466e-20 -2.496297983566264032e-20 -2.425977898206729418e-20 -2.355657969901331388e-20 -2.285338194099157667e-20 -2.215018566245757086e-20 -2.144699081790940800e-20 -2.074379736179230877e-20 -2.004060524860699675e-20 -1.933741443281087416e-20 -1.863422486892725813e-20 -1.793103651140476380e-20 -1.722784931469311374e-20 -1.652466323334305755e-20 -1.582147822174198988e-20 -1.511829423441694732e-20 -1.441511122583693581e-20 -1.371192915048497242e-20 -1.300874796281171857e-20 -1.230556761734628125e-20 -1.160238806850360795e-20 -1.089920927079828291e-20 -1.019603117871890239e-20 -9.492853746696375000e-21 -8.789676929264153108e-21 -8.086500680858513862e-21 -7.383324955967897025e-21 -6.680149709069674281e-21 -5.976974894639574254e-21 -5.273800467161351280e-21 -4.570626381113707137e-21 -3.867452590955025043e-21 -3.164279051172760732e-21 -2.461105716246586469e-21 -1.757932540654835400e-21 -1.054759478870813688e-21 -3.515864853685549912e-22 3.515864853685079714e-22 1.054759478870325435e-21 1.757932540653690374e-21 2.461105716249061590e-21 3.164279051169116511e-21 3.867452590950351654e-21 4.570626381102350169e-21 5.273800467161480678e-21 5.976974894642583520e-21 6.680149709066634923e-21 7.383324955954969221e-21 8.086500680852055978e-21 8.789676929268293857e-21 9.492853746722206535e-21 1.019603117871935979e-20 1.089920927080684728e-20 1.160238806850540147e-20 1.230556761732864696e-20 1.300874796280933523e-20 1.371192915048145759e-20 1.441511122583100154e-20 1.511829423441998066e-20 1.582147822171768705e-20 1.652466323333442698e-20 1.722784931471048322e-20 1.793103651141132400e-20 1.863422486893012295e-20 1.933741443281444917e-20 2.004060524860851342e-20 2.074379736179097265e-20 2.144699081790153576e-20 2.215018566245993012e-20 2.285338194101367671e-20 2.355657969902999725e-20 2.425977898208573496e-20 2.496297983566430144e-20 2.566618230530219168e-20 2.636938643656303223e-20 2.707259227488706977e-20 2.777579986588456242e-20 2.847900925499363831e-20 2.918222048779723145e-20 2.988543360981657386e-20 3.058864866649588443e-20 3.129186570343709163e-20 3.199508476616082564e-20 3.269830590016101841e-20 3.340152915096496865e-20 3.410475456410093800e-20 3.480798218508965294e-20
0.000000000000000000e+00 0.000000000000000000e+00 0.000000000000000000e+00 0.000000000000000000e+00 0.000000000000000000e+00 0.000000000000000000e+00 0.000000000000000000e+00 0.000000000000000000e+00 0.000000000000000000e+00 0.000000000000000000e+00 0.000000000000000000e+00 0.000000000000000000e+00 0.000000000000000000e+00 0.000000000000000000e+00 0.000000000000000000e+00 0.000000000000000000e+00 0.000000000000000000e+00 0.000000000000000000e+00 0.000000000000000000e+00 0.000000000000000000e+00 0.000000000000000000e+00 0.000000000000000000e+00 0.000000000000000000e+00 0.000000000000000000e+00 0.000000000000000000e+00 0.000000000000000000e+00 0.000000000000000000e+00 0.000000000000000000e+00 0.000000000000000000e+00 0.000000000000000000e+00 0.000000000000000000e+00 0.000000000000000000e+00 0.000000000000000000e+00 0.000000000000000000e+00 0.000000000000000000e+00 0.000000000000000000e+00 0.000000000000000000e+00 0.000000000000000000e+00 0.000000000000000000e+00 0.000000000000000000e+00 0.000000000000000000e+00 0.000000000000000000e+00 0.000000000000000000e+00 0.000000000000000000e+00 0.000000000000000000e+00 0.000000000000000000e+00 0.000000000000000000e+00 0.000000000000000000e+00 0.000000000000000000e+00 0.000000000000000000e+00 0.000000000000000000e+00 0.000000000000000000e+00 0.000000000000000000e+00 0.000000000000000000e+00 0.000000000000000000e+00 0.000000000000000000e+00 0.000000000000000000e+00 0.000000000000000000e+00 0.000000000000000000e+00 0.000000000000000000e+00 0.000000000000000000e+00 0.000000000000000000e+00 0.000000000000000000e+00 0.000000000000000000e+00 0.000000000000000000e+00 0.000000000000000000e+00 0.000000000000000000e+00 0.000000000000000000e+00 0.000000000000000000e+00 0.000000000000000000e+00 0.000000000000000000e+00 0.000000000000000000e+00 0.000000000000000000e+00 0.000000000000000000e+00 0.000000000000000000e+00 0.000000000000000000e+00 0.000000000000000000e+00 0.000000000000000000e+00 0.000000000000000000e+00 0.000000000000000000e+00 0.000000000000000000e+00 0.000000000000000000e+00 0.000000000000000000e+00 0.000000000000000000e+00 0.000000000000000000e+00 0.000000000000000000e+00 0.000000000000000000e+00 0.000000000000000000e+00 0.000000000000000000e+00 0.000000000000000000e+00 0.000000000000000000e+00 0.000000000000000000e+00 0.000000000000000000e+00 0.000000000000000000e+00 0.000000000000000000e+00 0.000000000000000000e+00 0.000000000000000000e+00 0.000000000000000000e+00 0.000000000000000000e+00 0.000000000000000000e+00
2.046989741484720772e-03 2.005636734318740674e-03 1.964283707503118419e-03 1.922930661442996507e-03 1.881577596543523943e-03 1.840224513209845827e-03 1.798871411847090783e-03 1.757518292860404995e-03 1.716165156654954164e-03 1.674812003635867130e-03 1.633458834208278802e-03 1.592105648777353364e-03 1.550752447748220955e-03 1.509399231526043373e-03 1.468046000515949023e-03 1.426692755123093632e-03 1.385339495752618399e-03 1.343986222809670809e-03 1.302632936699402253e-03 1.261279637826951110e-03 1.219926326597471807e-03 1.178573003416105974e-03 1.137219668688001749e-03 1.095866322818306836e-03 1.054512966212165686e-03 1.013159599274734458e-03 9.718062224111506664e-04 9.304528360265691689e-04 8.890994405261326821e-04 8.477460363149921622e-04 8.063926237982994329e-04 7.650392033811956923e-04 7.236857754688347157e-04 6.823323404663605204e-04 6.409788987789275319e-04 5.996254508116791171e-04 5.582719969697662321e-04 5.169185376583362553e-04 4.755650732825429075e-04 4.342116042475309108e-04 3.928581309584493241e-04 3.515046538204491576e-04 3.101511732386790909e-04 2.687976896182881826e-04 2.274442033644267385e-04 1.860907148822424622e-04 1.447372245768868519e-04 1.033837328535073538e-04 6.203024011725351446e-05 2.067674677327622243e-05 -2.067674677327619871e-05 -6.203024011725320275e-05 -1.033837328535071505e-04 -1.447372245768862014e-04 -1.860907148822435464e-04 -2.274442033644271180e-04 -2.687976896182885079e-04 -3.101511732386790367e-04 -3.515046538204491576e-04 -3.928581309584484567e-04 -4.342116042475302603e-04 -4.755650732825431244e-04 -5.169185376583366890e-04 -5.582719969697674247e-04 -5.996254508116789003e-04 -6.409788987789277488e-04 -6.823323404663594362e-04 -7.236857754688334147e-04 -7.650392033811954755e-04 -8.063926237982983487e-04 -8.477460363149923791e-04 -8.890994405261337663e-04 -9.304528360265703615e-04 -9.718062224111512085e-04 -1.013159599274734242e-03 -1.054512966212165686e-03 -1.095866322818308137e-03 -1.137219668688003917e-03 -1.178573003416105974e-03 -1.219926326597471590e-03 -1.261279637826951110e-03 -1.302632936699404421e-03 -1.343986222809670159e-03 -1.385339495752618832e-03 -1.426692755123092331e-03 -1.468046000515947939e-03 -1.509399231526041205e-03 -1.550752447748221172e-03 -1.592105648777354665e-03 -1.633458834208278369e-03 -1.674812003635866263e-03 -1.716165156654951562e-03 -1.757518292860406946e-03 -1.798871411847087530e-03 -1.840224513209843659e-03 -1.881577596543522858e-03 -1.922930661442996073e-03 -1.964283707503118852e-03 -2.005636734318740674e-03 -2.046989741484720772e-03
1.892961906383284388e-18 1.854720517230811271e-18 1.816479111821894368e-18 1.778237690491714438e-18 1.739996253575462640e-18 1.701754801408299124e-18 1.663513334325448368e-18 1.625271852662058774e-18 1.587030356753317265e-18 1.548788846934449859e-18 1.510547323540602069e-18 1.472305786906960817e-18 1.434064237368735558e-18 1.395822675261082206e-18 1.357581100919205594e-18 1.319339514678275888e-18 1.281097916873483477e-18 1.242856307840011044e-18 1.204614687913045126e-18 1.166373057427775533e-18 1.128131416719372240e-18 1.089889766123035264e-18 1.051648105973925333e-18 1.013406436607265000e-18 9.751647583582161482e-19 9.369230715619410479e-19 8.986813765536888281e-19 8.604396736685693732e-19 8.221979632418101456e-19 7.839562456085879557e-19 7.457145211040952141e-19 7.074727900634887015e-19 6.692310528220005026e-19 6.309893097147571611e-19 5.927475610769811320e-19 5.545058072438621294e-19 5.162640485505408526e-19 4.780222853322575715e-19 4.397805179241570299e-19 4.015387466614378974e-19 3.632969718792814142e-19 3.250551939128720462e-19 2.868134130973985930e-19 2.485716297680475427e-19 2.103298442599899280e-19 1.720880569084176779e-19 1.338462680485176658e-19 9.560447801547476713e-20 5.736268714446928297e-20 1.912089577068543866e-20 -1.912089577068770163e-20 -5.736268714447132928e-20 -9.560447801547589861e-20 -1.338462680485232510e-19 -1.720880569084198446e-19 -2.103298442599932984e-19 -2.485716297680443649e-19 -2.868134130974041782e-19 -3.250551939128789314e-19 -3.632969718792842068e-19 -4.015387466614321196e-19 -4.397805179241550076e-19 -4.780222853322563197e-19 -5.162640485505578008e-19 -5.545058072438541368e-19 -5.927475610769855616e-19 -6.309893097147596648e-19 -6.692310528219896211e-19 -7.074727900634942867e-19 -7.457145211040989697e-19 -7.839562456085905557e-19 -8.221979632418225678e-19 -8.604396736685567584e-19 -8.986813765536859392e-19 -9.369230715619514479e-19 -9.751647583582153778e-19 -1.013406436607263074e-18 -1.051648105973925718e-18 -1.089889766123032567e-18 -1.128131416719368581e-18 -1.166373057427765133e-18 -1.204614687913037615e-18 -1.242856307840012007e-18 -1.281097916873475773e-18 -1.319339514678275888e-18 -1.357581100919200202e-18 -1.395822675261076043e-18 -1.434064237368741528e-18 -1.472305786906959469e-18 -1.510547323540607847e-18 -1.548788846934444466e-18 -1.587030356753321502e-18 -1.625271852662058582e-18 -1.663513334325435656e-18 -1.701754801408300087e-18 -1.739996253575458403e-18 -1.778237690491714438e-18 -1.816479111821898991e-18 -1.854720517230817049e-18 -1.892961906383289010e-18
0.000000000000000000e+00 0.000000000000000000e+00 0.000000000000000000e+00 0.000000000000000000e+00 0.000000000000000000e+00 0.000000000000000000e+00 0.000000000000000000e+00 0.000000000000000000e+00 0.000000000000000000e+00 0.000000000000000000e+00 0.000000000000000000e+00 0.000000000000000000e+00 0.000000000000000000e+00 0.000000000000000000e+00 0.000000000000000000e+00 0.000000000000000000e+00 0.000000000000000000e+00 0.000000000000000000e+00 0.000000000000000000e+00 0.000000000000000000e+00 0.000000000000000000e+00 0.000000000000000000e+00 0.000000000000000000e+00 0.000000000000000000e+00 0.000000000000000000e+00 0.000000000000000000e+00 0.000000000000000000e+00 0.000000000000000000e+00 0.000000000000000000e+00 0.000000000000000000e+00 0.000000000000000000e+00 0.000000000000000000e+00 0.000000000000000000e+00 0.000000000000000000e+00 0.000000000000000000e+00 0.000000000000000000e+00 0.000000000000000000e+00 0.000000000000000000e+00 0.000000000000000000e+00 0.000000000000000000e+00 0.000000000000000000e+00 0.000000000000000000e+00 0.000000000000000000e+00 0.000000000000000000e+00 0.000000000000000000e+00 0.000000000000000000e+00 0.000000000000000000e+00 0.000000000000000000e+00 0.000000000000000000e+00 0.000000000000000000e+00 0.000000000000000000e+00 0.000000000000000000e+00 0.000000000000000000e+00 0.000000000000000000e+00 0.000000000000000000e+00 0.000000000000000000e+00 0.000000000000000000e+00 0.000000000000000000e+00 0.000000000000000000e+00 0.000000000000000000e+00 0.000000000000000000e+00 0.000000000000000000e+00 0.000000000000000000e+00 0.000000000000000000e+00 0.000000000000000000e+00 0.000000000000000000e+00 0.000000000000000000e+00 0.000000000000000000e+00 0.000000000000000000e+00 0.000000000000000000e+00 0.000000000000000000e+00 0.000000000000000000e+00 0.000000000000000000e+00 0.000000000000000000e+00 0.000000000000000000e+00 0.000000000000000000e+00 0.000000000000000000e+00 0.000000000000000000e+00 0.000000000000000000e+00 0.000000000000000000e+00 0.000000000000000000e+00 0.000000000000000000e+00 0.000000000000000000e+00 0.000000000000000000e+00 0.000000000000000000e+00 0.000000000000000000e+00 0.000000000000000000e+00 0.000000000000000000e+00 0.000000000000000000e+00 0.000000000000000000e+00 0.000000000000000000e+00 0.000000000000000000e+00 0.000000000000000000e+00 0.000000000000000000e+00 0.000000000000000000e+00 0.000000000000000000e+00 0.000000000000000000e+00 0.000000000000000000e+00 0.000000000000000000e+00 0.000000000000000000e+00
1.188582975534051289e-02 1.164571304637175737e-02 1.140559627226830561e-02 1.116547943437313367e-02 1.092536253402924366e-02 1.068524557257966197e-02 1.044512855136727966e-02 1.020501147173511272e-02 9.964894335026230898e-03 9.724777142583565168e-03 9.484659895750020484e-03 9.244542595868664864e-03 9.004425244282434487e-03 8.764307842334392168e-03 8.524190391367441125e-03 8.284072892724602538e-03 8.043955347748845547e-03 7.803837757783158371e-03 7.563720124170550917e-03 7.323602448253948086e-03 7.083484731376384069e-03 6.843366974880823669e-03 6.603249180110244698e-03 6.363131348407648387e-03 6.123013481115973516e-03 5.882895579578272492e-03 5.642777645137468483e-03 5.402659679136579199e-03 5.162541682918572912e-03 4.922423657826434373e-03 4.682305605203150936e-03 4.442187526391703015e-03 4.202069422735077962e-03 3.961951295576236244e-03 3.721833146258199908e-03 3.481714976123919010e-03 3.241596786516391746e-03 3.001478578778582051e-03 2.761360354253510670e-03 2.521242114284129830e-03 2.281123860213424715e-03 2.041005593384385714e-03 1.800887315139994326e-03 1.560769026823234000e-03 1.320650729777085803e-03 1.080532425344530581e-03 8.404141148685559046e-04 6.002957996921396951e-04 3.601774811582660529e-04 1.200591606099193768e-04 -1.200591606099191057e-04 -3.601774811582646976e-04 -6.002957996921400204e-04 -8.404141148685527604e-04 -1.080532425344534267e-03 -1.320650729777088188e-03 -1.560769026823234434e-03 -1.800887315139994760e-03 -2.041005593384388316e-03 -2.281123860213419945e-03 -2.521242114284126794e-03 -2.761360354253509369e-03 -3.001478578778583352e-03 -3.241596786516395649e-03 -3.481714976123919444e-03 -3.721833146258199474e-03 -3.961951295576237979e-03 -4.202069422735071023e-03 -4.442187526391698678e-03 -4.682305605203145732e-03 -4.922423657826432639e-03 -5.162541682918575514e-03 -5.402659679136582668e-03 -5.642777645137469350e-03 -5.882895579578272492e-03 -6.123013481115973516e-03 -6.363131348407651856e-03 -6.603249180110250770e-03 -6.843366974880821067e-03 -7.083484731376383202e-03 -7.323602448253951555e-03 -7.563720124170558723e-03 -7.803837757783155769e-03 -8.043955347748859425e-03 -8.284072892724604273e-03 -8.524190391367432451e-03 -8.764307842334386964e-03 -9.004425244282441426e-03 -9.244542595868670068e-03 -9.484659895750015279e-03 -9.724777142583565168e-03 -9.964894335026229163e-03 -1.020501147173512313e-02 -1.044512855136727099e-02 -1.068524557257965850e-02 -1.092536253402924366e-02 -1.116547943437313020e-02 -1.140559627226830387e-02 -1.164571304637175564e-02 -1.188582975534051116e-02
1.188780343759823031e-17 1.164764688651065656e-17 1.140749026843569564e-17 1.116733358475500814e-17 1.092717683684967227e-17 1.068702002610011911e-17 1.044686315389007077e-17 1.020670622159843918e-17 9.966549230605640020e-18 9.726392182295959307e-18 9.486235078048278146e-18 9.246077919243603863e-18 9.005920707264430601e-18 8.765763443491104708e-18 8.525606129305534844e-18 8.285448766088238379e-18 8.045291355220678699e-18 7.805133898084397767e-18 7.564976396060006940e-18 7.324818850529294699e-18 7.084661262872511866e-18 6.844503634471519339e-18 6.604345966706811375e-18 6.364188260961040045e-18 6.124030518614446154e-18 5.883872741047364495e-18 5.643714929643337686e-18 5.403557085780667508e-18 5.163399210842154712e-18 4.923241306208664106e-18 4.683083373261609771e-18 4.442925413381240988e-18 4.202767427950450953e-18 3.962609418348348025e-18 3.722451385957353164e-18 3.482293332158969042e-18 3.242135258332840970e-18 3.001977165862001966e-18 2.761819056126273369e-18 2.521660930507218327e-18 2.281502790385988226e-18 2.041344637143705948e-18 1.801186472161730109e-18 1.561028296821301263e-18 1.320870112502997834e-18 1.080711920588303429e-18 8.405537224584717968e-19 6.003955194946886044e-19 3.602373130779965667e-19 1.200791045894789635e-19 -1.200791045895005821e-19 -3.602373130780061963e-19 -6.003955194946756043e-19 -8.405537224585833081e-19 -1.080711920588240644e-18 -1.320870112502920219e-18 -1.561028296821004670e-18 -1.801186472161792509e-18 -2.041344637143843845e-18 -2.281502790385942389e-18 -2.521660930506855867e-18 -2.761819056126098494e-18 -3.001977165862089789e-18 -3.242135258333612498e-18 -3.482293332158905872e-18 -3.722451385957602764e-18 -3.962609418348414277e-18 -4.202767427949929411e-18 -4.442925413381245610e-18 -4.683083373261563549e-18 -4.923241306208548550e-18 -5.163399210842347305e-18 -5.403557085779978795e-18 -5.643714929643108115e-18 -5.883872741047881414e-18 -6.124030518614587903e-18 -6.364188260961078563e-18 -6.604345966706896116e-18 -6.844503634471528583e-18 -7.084661262872442533e-18 -7.324818850529011203e-18 -7.564976396059993073e-18 -7.805133898084918539e-18 -8.045291355220994551e-18 -8.285448766088660543e-18 -8.525606129305528681e-18 -8.765763443490828915e-18 -9.005920707264592379e-18 -9.246077919243155506e-18 -9.486235078048036249e-18 -9.726392182295484758e-18 -9.966549230606091457e-18 -1.020670622159868108e-17 -1.044686315388985661e-17 -1.068702002610062447e-17 -1.092717683684963837e-17 -1.116733358475496500e-17 -1.140749026843560319e-17 -1.164764688651044240e-17 -1.188780343759827807e-17
0.000000000000000000e+00 0.000000000000000000e+00 0.000000000000000000e+00 0.000000000000000000e+00 0.000000000000000000e+00 0.000000000000000000e+00 0.000000000000000000e+00 0.000000000000000000e+00 0.000000000000000000e+00 0.000000000000000000e+00 0.000000000000000000e+00 0.000000000000000000e+00 0.000000000000000000e+00 0.000000000000000000e+00 0.000000000000000000e+00 0.000000000000000000e+00 0.000000000000000000e+00 0.000000000000000000e+00 0.000000000000000000e+00 0.000000000000000000e+00 0.000000000000000000e+00 0.000000000000000000e+00 0.000000000000000000e+00 0.000000000000000000e+00 0.000000000000000000e+00 0.000000000000000000e+00 0.000000000000000000e+00 0.000000000000000000e+00 0.000000000000000000e+00 0.000000000000000000e+00 0.000000000000000000e+00 0.000000000000000000e+00 0.000000000000000000e+00 0.000000000000000000e+00 0.000000000000000000e+00 0.000000000000000000e+00 0.000000000000000000e+00 0.000000000000000000e+00 0.000000000000000000e+00 0.000000000000000000e+00 0.000000000000000000e+00 0.000000000000000000e+00 0.000000000000000000e+00 0.000000000000000000e+00 0.000000000000000000e+00 0.000000000000000000e+00 0.000000000000000000e+00 0.000000000000000000e+00 0.000000000000000000e+00 0.000000000000000000e+00 0.000000000000000000e+00 0.000000000000000000e+00 0.000000000000000000e+00 0.000000000000000000e+00 0.000000000000000000e+00 0.000000000000000000e+00 0.000000000000000000e+00 0.000000000000000000e+00 0.000000000000000000e+00 0.000000000000000000e+00 0.000000000000000000e+00 0.000000000000000000e+00 0.000000000000000000e+00 0.000000000000000000e+00 0.000000000000000000e+00 0.000000000000000000e+00 0.000000000000000000e+00 0.000000000000000000e+00 0.000000000000000000e+00 0.000000000000000000e+00 0.000000000000000000e+00 0.000000000000000000e+00 0.000000000000000000e+00 0.000000000000000000e+00 0.000000000000000000e+00 0.000000000000000000e+00 0.000000000000000000e+00 0.000000000000000000e+00 0.000000000000000000e+00 0.000000000000000000e+00 0.000000000000000000e+00 0.000000000000000000e+00 0.000000000000000000e+00 0.000000000000000000e+00 0.000000000000000000e+00 0.000000000000000000e+00 0.000000000000000000e+00 0.000000000000000000e+00 0.000000000000000000e+00 0.000000000000000000e+00 0.000000000000000000e+00 0.000000000000000000e+00 0.000000000000000000e+00 0.000000000000000000e+00 0.000000000000000000e+00 0.000000000000000000e+00 0.000000000000000000e+00 0.000000000000000000e+00 0.000000000000000000e+00 0.000000000000000000e+00
