# 
#                 ----------------------------------------------------
#                 Data from a 3D direct N-body simulation. 
# 
#                 rows are i-particle; 
#                 coumns are :mass, tag, x ,y, z, vx, vy, vz, ax, ay, az
# 
#                 NTHU, Computational Physics Lab
# 
#                 ----------------------------------------------------
#                 Time = 0.2
1.000000000000000000e+00 2.000000000000000000e+00 3.000000000000000000e+00 4.000000000000000000e+00 5.000000000000000000e+00 6.000000000000000000e+00 7.000000000000000000e+00 8.000000000000000000e+00 9.000000000000000000e+00 1.000000000000000000e+01 1.100000000000000000e+01 1.200000000000000000e+01 1.300000000000000000e+01 1.400000000000000000e+01 1.500000000000000000e+01 1.600000000000000000e+01 1.700000000000000000e+01 1.800000000000000000e+01 1.900000000000000000e+01 2.000000000000000000e+01 2.100000000000000000e+01 2.200000000000000000e+01 2.300000000000000000e+01 2.400000000000000000e+01 2.500000000000000000e+01 2.600000000000000000e+01 2.700000000000000000e+01 2.800000000000000000e+01 2.900000000000000000e+01 3.000000000000000000e+01 3.100000000000000000e+01 3.200000000000000000e+01 3.300000000000000000e+01 3.400000000000000000e+01 3.500000000000000000e+01 3.600000000000000000e+01 3.700000000000000000e+01 3.800000000000000000e+01 3.900000000000000000e+01 4.000000000000000000e+01 4.100000000000000000e+01 4.200000000000000000e+01 4.300000000000000000e+01 4.400000000000000000e+01 4.500000000000000000e+01 4.600000000000000000e+01 4.700000000000000000e+01 4.800000000000000000e+01 4.900000000000000000e+01 5.000000000000000000e+01 5.100000000000000000e+01 5.200000000000000000e+01 5.300000000000000000e+01 5.400000000000000000e+01 5.500000000000000000e+01 5.600000000000000000e+01 5.700000000000000000e+01 5.800000000000000000e+01 5.900000000000000000e+01 6.000000000000000000e+01 6.100000000000000000e+01 6.200000000000000000e+01 6.300000000000000000e+01 6.400000000000000000e+01 6.500000000000000000e+01 6.600000000000000000e+01 6.700000000000000000e+01 6.800000000000000000e+01 6.900000000000000000e+01 7.000000000000000000e+01 7.100000000000000000e+01 7.200000000000000000e+01 7.300000000000000000e+01 7.400000000000000000e+01 7.500000000000000000e+01 7.600000000000000000e+01 7.700000000000000000e+01 7.800000000000000000e+01 7.900000000000000000e+01 8.000000000000000000e+01 8.100000000000000000e+01 8.200000000000000000e+01 8.300000000000000000e+01 8.400000000000000000e+01 8.500000000000000000e+01 8.600000000000000000e+01 8.700000000000000000e+01 8.800000000000000000e+01 8.900000000000000000e+01 9.000000000000000000e+01 9.100000000000000000e+01 9.200000000000000000e+01 9.300000000000000000e+01 9.400000000000000000e+01 9.500000000000000000e+01 9.600000000000000000e+01 9.700000000000000000e+01 9.800000000000000000e+01 9.900000000000000000e+01 1.000000000000000000e+02
1.000000000000000000e+00 1.000000000000000000e+00 1.000000000000000000e+00 1.000000000000000000e+00 1.000000000000000000e+00 1.000000000000000000e+00 1.000000000000000000e+00 1.000000000000000000e+00 1.000000000000000000e+00 1.000000000000000000e+00 1.000000000000000000e+00 1.000000000000000000e+00 1.000000000000000000e+00 1.000000000000000000e+00 1.000000000000000000e+00 1.000000000000000000e+00 1.000000000000000000e+00 1.000000000000000000e+00 1.000000000000000000e+00 1.000000000000000000e+00 1.000000000000000000e+00 1.000000000000000000e+00 1.000000000000000000e+00 1.000000000000000000e+00 1.000000000000000000e+00 1.000000000000000000e+00 1.000000000000000000e+00 1.000000000000000000e+00 1.000000000000000000e+00 1.000000000000000000e+00 1.000000000000000000e+00 1.000000000000000000e+00 1.000000000000000000e+00 1.000000000000000000e+00 1.000000000000000000e+00 1.000000000000000000e+00 1.000000000000000000e+00 1.000000000000000000e+00 1.000000000000000000e+00 1.000000000000000000e+00 1.000000000000000000e+00 1.000000000000000000e+00 1.000000000000000000e+00 1.000000000000000000e+00 1.000000000000000000e+00 1.000000000000000000e+00 1.000000000000000000e+00 1.000000000000000000e+00 1.000000000000000000e+00 1.000000000000000000e+00 1.000000000000000000e+00 1.000000000000000000e+00 1.000000000000000000e+00 1.000000000000000000e+00 1.000000000000000000e+00 1.000000000000000000e+00 1.000000000000000000e+00 1.000000000000000000e+00 1.000000000000000000e+00 1.000000000000000000e+00 1.000000000000000000e+00 1.000000000000000000e+00 1.000000000000000000e+00 1.000000000000000000e+00 1.000000000000000000e+00 1.000000000000000000e+00 1.000000000000000000e+00 1.000000000000000000e+00 1.000000000000000000e+00 1.000000000000000000e+00 1.000000000000000000e+00 1.000000000000000000e+00 1.000000000000000000e+00 1.000000000000000000e+00 1.000000000000000000e+00 1.000000000000000000e+00 1.000000000000000000e+00 1.000000000000000000e+00 1.000000000000000000e+00 1.000000000000000000e+00 1.000000000000000000e+00 1.000000000000000000e+00 1.000000000000000000e+00 1.000000000000000000e+00 1.000000000000000000e+00 1.000000000000000000e+00 1.000000000000000000e+00 1.000000000000000000e+00 1.000000000000000000e+00 1.000000000000000000e+00 1.000000000000000000e+00 1.000000000000000000e+00 1.000000000000000000e+00 1.000000000000000000e+00 1.000000000000000000e+00 1.000000000000000000e+00 1.000000000000000000e+00 1.000000000000000000e+00 1.000000000000000000e+00 1.000000000000000000e+00
2.916457465092584723e-05 2.857539132801319330e-05 2.798620800489431395e-05 2.739702468157343418e-05 2.680784135805479933e-05 2.621865803434270215e-05 2.562947471044131682e-05 2.504029138635496660e-05 2.445110806208791377e-05 2.386192473764435620e-05 2.327274141302856296e-05 2.268355808824482680e-05 2.209437476329734900e-05 2.150519143819045283e-05 2.091600811292827181e-05 2.032682478751515629e-05 1.973764146195532111e-05 1.914845813625303531e-05 1.855927481041252052e-05 1.797009148443808304e-05 1.738090815833393093e-05 1.679172483210433325e-05 1.620254150575353870e-05 1.561335817928579601e-05 1.502417485270535389e-05 1.443499152601648309e-05 1.384580819922341876e-05 1.325662487233043334e-05 1.266744154534177555e-05 1.207825821826167717e-05 1.148907489109441231e-05 1.089989156384421786e-05 1.031070823651535945e-05 9.721524909112094277e-06 9.132341581638654120e-06 8.543158254099301248e-06 7.953974926498299624e-06 7.364791598839867472e-06 6.775608271128301791e-06 6.186424943367818262e-06 5.597241615562696944e-06 5.008058287717168767e-06 4.418874959835479059e-06 3.829691631921908725e-06 3.240508303980699705e-06 2.651324976016103683e-06 2.062141648032374033e-06 1.472958320033752274e-06 8.837749920245056509e-07 2.945916640088761051e-07 -2.945916640088773227e-07 -8.837749920245055450e-07 -1.472958320033756509e-06 -2.062141648032371916e-06 -2.651324976016106648e-06 -3.240508303980700976e-06 -3.829691631921919736e-06 -4.418874959835487529e-06 -5.008058287717161991e-06 -5.597241615562693556e-06 -6.186424943367823344e-06 -6.775608271128300096e-06 -7.364791598839869166e-06 -7.953974926498282684e-06 -8.543158254099302942e-06 -9.132341581638655814e-06 -9.721524909112095971e-06 -1.031070823651537131e-05 -1.089989156384421786e-05 -1.148907489109441062e-05 -1.207825821826168055e-05 -1.266744154534177386e-05 -1.325662487233045028e-05 -1.384580819922342892e-05 -1.443499152601648648e-05 -1.502417485270535220e-05 -1.561335817928579601e-05 -1.620254150575353870e-05 -1.679172483210431970e-05 -1.738090815833392416e-05 -1.797009148443807626e-05 -1.855927481041251713e-05 -1.914845813625300821e-05 -1.973764146195530078e-05 -2.032682478751513935e-05 -2.091600811292827181e-05 -2.150519143819043928e-05 -2.209437476329737950e-05 -2.268355808824484374e-05 -2.327274141302856635e-05 -2.386192473764434604e-05 -2.445110806208789005e-05 -2.504029138635494966e-05 -2.562947471044131005e-05 -2.621865803434267166e-05 -2.680784135805477900e-05 -2.739702468157341047e-05 -2.798620800489429701e-05 -2.857539132801320008e-05 -2.916457465092584385e-05
9.463693189709731474e-21 9.272507467263994622e-21 9.081321744906496959e-21 8.890136022635446467e-21 8.698950300449010504e-21 8.507764578345374481e-21 8.316578856322737355e-21 8.125393134379219838e-21 7.934207412513047969e-21 7.743021690722393618e-21 7.551835969005457245e-21 7.360650247360395675e-21 7.169464525785388302e-21 6.978278804278579914e-21 6.787093082838241688e-21 6.595907361462480796e-21 6.404721640149511238e-21 6.213535918897483821e-21 6.022350197704632859e-21 5.831164476569060257e-21 5.639978755489011614e-21 5.448793034462637735e-21 5.257607313488125539e-21 5.066421592563653667e-21 4.875235871687412798e-21 4.684050150857576309e-21 4.492864430072308546e-21 4.301678709329809971e-21 4.110492988628247186e-21 3.919307267965819900e-21 3.728121547340684937e-21 3.536935826751046519e-21 3.345750106195045670e-21 3.154564385670907301e-21 2.963378665176789365e-21 2.772192944710872009e-21 2.581007224271342150e-21 2.389821503856379558e-21 2.198635783464155730e-21 2.007450063092868866e-21 1.816264342740682187e-21 1.625078622405784490e-21 1.433892902086370218e-21 1.242707181780585661e-21 1.051521461486634664e-21 8.603357412026907925e-22 6.691500209269319348e-22 4.779643006575471718e-22 2.867785803927086096e-22 9.559286013060074430e-23 -9.559286013059762924e-23 -2.867785803927059295e-22 -4.779643006575435042e-22 -6.691500209269318408e-22 -8.603357412026911686e-22 -1.051521461486635981e-21 -1.242707181780580771e-21 -1.433892902086361002e-21 -1.625078622405787688e-21 -1.816264342740685572e-21 -2.007450063092870747e-21 -2.198635783464159491e-21 -2.389821503856380311e-21 -2.581007224271342526e-21 -2.772192944710872385e-21 -2.963378665176784099e-21 -3.154564385670898649e-21 -3.345750106195044918e-21 -3.536935826751044262e-21 -3.728121547340684937e-21 -3.919307267965808616e-21 -4.110492988628244177e-21 -4.301678709329809971e-21 -4.492864430072301775e-21 -4.684050150857562014e-21 -4.875235871687412798e-21 -5.066421592563661942e-21 -5.257607313488131557e-21 -5.448793034462641497e-21 -5.639978755489010862e-21 -5.831164476569061762e-21 -6.022350197704623079e-21 -6.213535918897498115e-21 -6.404721640149514247e-21 -6.595907361462479291e-21 -6.787093082838222128e-21 -6.978278804278575400e-21 -7.169464525785347677e-21 -7.360650247360376115e-21 -7.551835969005452732e-21 -7.743021690722402646e-21 -7.934207412513060006e-21 -8.125393134379231875e-21 -8.316578856322728327e-21 -8.507764578345392537e-21 -8.698950300449027055e-21 -8.890136022635447972e-21 -9.081321744906508996e-21 -9.272507467263994622e-21 -9.463693189709720942e-21
0.000000000000000000e+00 0.000000000000000000e+00 0.000000000000000000e+00 0.000000000000000000e+00 0.000000000000000000e+00 0.000000000000000000e+00 0.000000000000000000e+00 0.000000000000000000e+00 0.000000000000000000e+00 0.000000000000000000e+00 0.000000000000000000e+00 0.000000000000000000e+00 0.000000000000000000e+00 0.000000000000000000e+00 0.000000000000000000e+00 0.000000000000000000e+00 0.000000000000000000e+00 0.000000000000000000e+00 0.000000000000000000e+00 0.000000000000000000e+00 0.000000000000000000e+00 0.000000000000000000e+00 0.000000000000000000e+00 0.000000000000000000e+00 0.000000000000000000e+00 0.000000000000000000e+00 0.000000000000000000e+00 0.000000000000000000e+00 0.000000000000000000e+00 0.000000000000000000e+00 0.000000000000000000e+00 0.000000000000000000e+00 0.000000000000000000e+00 0.000000000000000000e+00 0.000000000000000000e+00 0.000000000000000000e+00 0.000000000000000000e+00 0.000000000000000000e+00 0.000000000000000000e+00 0.000000000000000000e+00 0.000000000000000000e+00 0.000000000000000000e+00 0.000000000000000000e+00 0.000000000000000000e+00 0.000000000000000000e+00 0.000000000000000000e+00 0.000000000000000000e+00 0.000000000000000000e+00 0.000000000000000000e+00 0.000000000000000000e+00 0.000000000000000000e+00 0.000000000000000000e+00 0.000000000000000000e+00 0.000000000000000000e+00 0.000000000000000000e+00 0.000000000000000000e+00 0.000000000000000000e+00 0.000000000000000000e+00 0.000000000000000000e+00 0.000000000000000000e+00 0.000000000000000000e+00 0.000000000000000000e+00 0.000000000000000000e+00 0.000000000000000000e+00 0.000000000000000000e+00 0.000000000000000000e+00 0.000000000000000000e+00 0.000000000000000000e+00 0.000000000000000000e+00 0.000000000000000000e+00 0.000000000000000000e+00 0.000000000000000000e+00 0.000000000000000000e+00 0.000000000000000000e+00 0.000000000000000000e+00 0.000000000000000000e+00 0.000000000000000000e+00 0.000000000000000000e+00 0.000000000000000000e+00 0.000000000000000000e+00 0.000000000000000000e+00 0.000000000000000000e+00 0.000000000000000000e+00 0.000000000000000000e+00 0.000000000000000000e+00 0.000000000000000000e+00 0.000000000000000000e+00 0.000000000000000000e+00 0.000000000000000000e+00 0.000000000000000000e+00 0.000000000000000000e+00 0.000000000000000000e+00 0.000000000000000000e+00 0.000000000000000000e+00 0.000000000000000000e+00 0.000000000000000000e+00 0.000000000000000000e+00 0.000000000000000000e+00 0.000000000000000000e+00 0.000000000000000000e+00
6.603303206147406366e-05 6.469903110436602944e-05 6.336503016620109426e-05 6.203102924658843035e-05 6.069702834513757584e-05 5.936302746145810953e-05 5.802902659515871576e-05 5.669502574584961028e-05 5.536102491314023638e-05 5.402702409663952233e-05 5.269302329595707403e-05 5.135902251070268711e-05 5.002502174048534408e-05 4.869102098491490832e-05 4.735702024360006416e-05 4.602301951615085120e-05 4.468901880217644165e-05 4.335501810128644141e-05 4.202101741308996851e-05 4.068701673719685922e-05 3.935301607321624513e-05 3.801901542075766436e-05 3.668501477943051953e-05 3.535101414884414550e-05 3.401701352860799909e-05 3.268301291833160488e-05 3.134901231762421642e-05 3.001501172609550059e-05 2.868101114335483968e-05 2.734701056901148723e-05 2.601301000267495426e-05 2.467900944395469762e-05 2.334500889246009280e-05 2.201100834780065084e-05 2.067700780958567271e-05 1.934300727742462202e-05 1.800900675092703012e-05 1.667500622970204214e-05 1.534100571335940627e-05 1.400700520150833202e-05 1.267300469375840156e-05 1.133900418971889554e-05 1.000500368899916913e-05 8.671003191208851964e-06 7.337002695957294134e-06 6.003002202853933831e-06 4.669001711508182140e-06 3.335001221529379843e-06 2.001000732527054068e-06 6.670002441105921838e-07 -6.670002441105915486e-07 -2.001000732527059151e-06 -3.335001221529404407e-06 -4.669001711508158424e-06 -6.003002202853957548e-06 -7.337002695957312769e-06 -8.671003191208933279e-06 -1.000500368899921995e-05 -1.133900418971885488e-05 -1.267300469375839478e-05 -1.400700520150840995e-05 -1.534100571335943338e-05 -1.667500622970204892e-05 -1.800900675092688104e-05 -1.934300727742460847e-05 -2.067700780958565916e-05 -2.201100834780064406e-05 -2.334500889246017411e-05 -2.467900944395471117e-05 -2.601301000267495426e-05 -2.734701056901150078e-05 -2.868101114335479225e-05 -3.001501172609562934e-05 -3.134901231762427063e-05 -3.268301291833155067e-05 -3.401701352860790422e-05 -3.535101414884410484e-05 -3.668501477943049243e-05 -3.801901542075762370e-05 -3.935301607321621802e-05 -4.068701673719683212e-05 -4.202101741308998206e-05 -4.335501810128625168e-05 -4.468901880217633323e-05 -4.602301951615068857e-05 -4.735702024360010482e-05 -4.869102098491484055e-05 -5.002502174048550671e-05 -5.135902251070280909e-05 -5.269302329595716889e-05 -5.402702409663959009e-05 -5.536102491314019573e-05 -5.669502574584955607e-05 -5.802902659515878352e-05 -5.936302746145793335e-05 -6.069702834513754873e-05 -6.203102924658845745e-05 -6.336503016620106715e-05 -6.469903110436613786e-05 -6.603303206147406366e-05
7.959185236716387073e-20 7.798393607335485794e-20 7.637601978471158649e-20 7.476810350112737189e-20 7.316018722249567410e-20 7.155227094871031421e-20 6.994435467966399383e-20 6.833643841525099145e-20 6.672852215536467074e-20 6.512060589989832314e-20 6.351268964874517991e-20 6.190477340179948343e-20 6.029685715895407975e-20 5.868894092010325942e-20 5.708102468513908608e-20 5.547310845395633174e-20 5.386519222644785451e-20 5.225727600250772825e-20 5.064935978202850411e-20 4.904144356490488791e-20 4.743352735102940070e-20 4.582561114029588162e-20 4.421769493259779063e-20 4.260977872782871409e-20 4.100186252588195548e-20 3.939394632665113123e-20 3.778603013002980965e-20 3.617811393591136645e-20 3.457019774418946620e-20 3.296228155475728601e-20 3.135436536750861084e-20 2.974644918233664186e-20 2.813853299913529041e-20 2.653061681779779378e-20 2.492270063821751563e-20 2.331478446028825296e-20 2.170686828390329722e-20 2.009895210895604216e-20 1.849103593534038409e-20 1.688311976294934663e-20 1.527520359167680804e-20 1.366728742141596947e-20 1.205937125206022469e-20 1.045145508350355125e-20 8.843538915639105188e-21 7.235622748360472843e-21 5.627706581561169103e-21 4.019790415134535816e-21 2.411874248974239080e-21 8.039580829736498023e-22 -8.039580829736295838e-22 -2.411874248974203345e-21 -4.019790415134562899e-21 -5.627706581561133744e-21 -7.235622748360475852e-21 -8.843538915639066067e-21 -1.045145508350361445e-20 -1.205937125206032550e-20 -1.366728742141588822e-20 -1.527520359167673883e-20 -1.688311976294934663e-20 -1.849103593534034497e-20 -2.009895210895611438e-20 -2.170686828390320092e-20 -2.331478446028826199e-20 -2.492270063821756378e-20 -2.653061681779777572e-20 -2.813853299913530847e-20 -2.974644918233664186e-20 -3.135436536750855668e-20 -3.296228155475729203e-20 -3.457019774418943009e-20 -3.617811393591139654e-20 -3.778603013002986382e-20 -3.939394632665118540e-20 -4.100186252588190733e-20 -4.260977872782865992e-20 -4.421769493259782674e-20 -4.582561114029582745e-20 -4.743352735102929838e-20 -4.904144356490477957e-20 -5.064935978202855828e-20 -5.225727600250752362e-20 -5.386519222644779433e-20 -5.547310845395618729e-20 -5.708102468513918237e-20 -5.868894092010300664e-20 -6.029685715895442883e-20 -6.190477340179956769e-20 -6.351268964874530029e-20 -6.512060589989823888e-20 -6.672852215536464667e-20 -6.833643841525096738e-20 -6.994435467966409013e-20 -7.155227094871019384e-20 -7.316018722249560188e-20 -7.476810350112740800e-20 -7.637601978471147816e-20 -7.798393607335497831e-20 -7.959185236716387073e-20
0.000000000000000000e+00 0.000000000000000000e+00 0.000000000000000000e+00 0.000000000000000000e+00 0.000000000000000000e+00 0.000000000000000000e+00 0.000000000000000000e+00 0.000000000000000000e+00 0.000000000000000000e+00 0.000000000000000000e+00 0.000000000000000000e+00 0.000000000000000000e+00 0.000000000000000000e+00 0.000000000000000000e+00 0.000000000000000000e+00 0.000000000000000000e+00 0.000000000000000000e+00 0.000000000000000000e+00 0.000000000000000000e+00 0.000000000000000000e+00 0.000000000000000000e+00 0.000000000000000000e+00 0.000000000000000000e+00 0.000000000000000000e+00 0.000000000000000000e+00 0.000000000000000000e+00 0.000000000000000000e+00 0.000000000000000000e+00 0.000000000000000000e+00 0.000000000000000000e+00 0.000000000000000000e+00 0.000000000000000000e+00 0.000000000000000000e+00 0.000000000000000000e+00 0.000000000000000000e+00 0.000000000000000000e+00 0.000000000000000000e+00 0.000000000000000000e+00 0.000000000000000000e+00 0.000000000000000000e+00 0.000000000000000000e+00 0.000000000000000000e+00 0.000000000000000000e+00 0.000000000000000000e+00 0.000000000000000000e+00 0.000000000000000000e+00 0.000000000000000000e+00 0.000000000000000000e+00 0.000000000000000000e+00 0.000000000000000000e+00 0.000000000000000000e+00 0.000000000000000000e+00 0.000000000000000000e+00 0.000000000000000000e+00 0.000000000000000000e+00 0.000000000000000000e+00 0.000000000000000000e+00 0.000000000000000000e+00 0.000000000000000000e+00 0.000000000000000000e+00 0.000000000000000000e+00 0.000000000000000000e+00 0.000000000000000000e+00 0.000000000000000000e+00 0.000000000000000000e+00 0.000000000000000000e+00 0.000000000000000000e+00 0.000000000000000000e+00 0.000000000000000000e+00 0.000000000000000000e+00 0.000000000000000000e+00 0.000000000000000000e+00 0.000000000000000000e+00 0.000000000000000000e+00 0.000000000000000000e+00 0.000000000000000000e+00 0.000000000000000000e+00 0.000000000000000000e+00 0.000000000000000000e+00 0.000000000000000000e+00 0.000000000000000000e+00 0.000000000000000000e+00 0.000000000000000000e+00 0.000000000000000000e+00 0.000000000000000000e+00 0.000000000000000000e+00 0.000000000000000000e+00 0.000000000000000000e+00 0.000000000000000000e+00 0.000000000000000000e+00 0.000000000000000000e+00 0.000000000000000000e+00 0.000000000000000000e+00 0.000000000000000000e+00 0.000000000000000000e+00 0.000000000000000000e+00 0.000000000000000000e+00 0.000000000000000000e+00 0.000000000000000000e+00 0.000000000000000000e+00
-1.980989578269506338e-03 -1.940969590859123635e-03 -1.900949603199568721e-03 -1.860929615295978980e-03 -1.820909627153492879e-03 -1.780889638777246719e-03 -1.740869650172382002e-03 -1.700849661344031342e-03 -1.660829672297333423e-03 -1.620809683037427581e-03 -1.580789693569449898e-03 -1.540769703898537757e-03 -1.500749714029829627e-03 -1.460729723968461806e-03 -1.420709733719573847e-03 -1.380689743288301399e-03 -1.340669752679783796e-03 -1.300649761899157122e-03 -1.260629770951560494e-03 -1.220609779842129778e-03 -1.180589788576003442e-03 -1.140569797158318653e-03 -1.100549805594212794e-03 -1.060529813888824334e-03 -1.020509822047290871e-03 -9.804898300747484901e-04 -9.404698379763368503e-04 -9.004498457571914923e-04 -8.604298534224507754e-04 -8.204098609772528423e-04 -7.803898684267342092e-04 -7.403698757760331269e-04 -7.003498830302871958e-04 -6.603298901946332575e-04 -6.203098972742095629e-04 -5.802899042741539292e-04 -5.402699111996030895e-04 -5.002499180556957284e-04 -4.602299248475681995e-04 -4.202099315803587538e-04 -3.801899382592045578e-04 -3.401699448892434832e-04 -3.001499514756136183e-04 -2.601299580234516418e-04 -2.201099645378953981e-04 -1.800899710240825419e-04 -1.400699774871504567e-04 -1.000499839322371225e-04 -6.002999036447989557e-05 -2.000999678901617320e-05 2.000999678901621724e-05 6.002999036447989557e-05 1.000499839322371089e-04 1.400699774871505922e-04 1.800899710240822980e-04 2.201099645378953710e-04 2.601299580234512623e-04 3.001499514756134014e-04 3.401699448892435917e-04 3.801899382592044494e-04 4.202099315803582117e-04 4.602299248475679285e-04 5.002499180556959453e-04 5.402699111996040653e-04 5.802899042741544713e-04 6.203098972742101050e-04 6.603298901946333659e-04 7.003498830302867621e-04 7.403698757760331269e-04 7.803898684267344260e-04 8.204098609772527339e-04 8.604298534224513175e-04 9.004498457571914923e-04 9.404698379763372839e-04 9.804898300747493575e-04 1.020509822047291522e-03 1.060529813888825201e-03 1.100549805594212794e-03 1.140569797158318219e-03 1.180589788576003009e-03 1.220609779842129778e-03 1.260629770951560494e-03 1.300649761899158206e-03 1.340669752679784664e-03 1.380689743288302700e-03 1.420709733719573631e-03 1.460729723968461806e-03 1.500749714029829410e-03 1.540769703898537107e-03 1.580789693569449247e-03 1.620809683037426497e-03 1.660829672297332773e-03 1.700849661344031125e-03 1.740869650172380918e-03 1.780889638777246936e-03 1.820909627153492446e-03 1.860929615295977895e-03 1.900949603199567853e-03 1.940969590859122334e-03 1.980989578269504604e-03
1.336985340228372744e-19 1.309975526199851649e-19 1.282965712733136837e-19 1.255955899816574747e-19 1.228946087438609799e-19 1.201936275587680636e-19 1.174926464252085790e-19 1.147916653420413883e-19 1.120906843081020022e-19 1.093897033222292776e-19 1.066887223832599165e-19 1.039877414900479305e-19 1.012867606414263626e-19 9.858577983625328066e-20 9.588479907333741285e-20 9.318381835154998363e-20 9.048283766971806555e-20 8.778185702669483956e-20 8.508087642130294857e-20 8.237989585241112540e-20 7.967891531883824538e-20 7.697793481943564775e-20 7.427695435304311623e-20 7.157597391850402154e-20 6.887499351465618533e-20 6.617401314034389316e-20 6.347303279441220094e-20 6.077205247569844885e-20 5.807107218304869187e-20 5.537009191529739334e-20 5.266911167129382212e-20 4.996813144987208044e-20 4.726715124988527097e-20 4.456617107016539547e-20 4.186519090955581863e-20 3.916421076690153620e-20 3.646323064104210316e-20 3.376225053081620182e-20 3.106127043507364875e-20 2.836029035264677670e-20 2.565931028238529694e-20 2.295833022312537601e-20 2.025735017370548557e-20 1.755637013297865609e-20 1.485539009977905597e-20 1.215441007295041255e-20 9.453430051335064380e-21 6.752450033771440232e-21 4.051470019105067730e-21 1.350490006175013985e-21 -1.350490006175087336e-21 -4.051470019104819466e-21 -6.752450033772304643e-21 -9.453430051334512180e-21 -1.215441007295041405e-20 -1.485539009977827958e-20 -1.755637013298025401e-20 -2.025735017370801034e-20 -2.295833022312366073e-20 -2.565931028238385851e-20 -2.836029035264671050e-20 -3.106127043507269782e-20 -3.376225053081705645e-20 -3.646323064104020130e-20 -3.916421076690166258e-20 -4.186519090955693205e-20 -4.456617107016623806e-20 -4.726715124988560801e-20 -4.996813144987220081e-20 -5.266911167129288323e-20 -5.537009191529892204e-20 -5.807107218304830669e-20 -6.077205247569919514e-20 -6.347303279441389817e-20 -6.617401314034657742e-20 -6.887499351465540292e-20 -7.157597391850220394e-20 -7.427695435304289956e-20 -7.697793481943409497e-20 -7.967891531883689723e-20 -8.237989585240909114e-20 -8.508087642130512728e-20 -8.778185702669003677e-20 -9.048283766971634425e-20 -9.318381835154784103e-20 -9.588479907334120452e-20 -9.858577983624993436e-20 -1.012867606414362330e-19 -1.039877414900515296e-19 -1.066887223832614813e-19 -1.093897033222267979e-19 -1.120906843080999800e-19 -1.147916653420398235e-19 -1.174926464252108901e-19 -1.201936275587640673e-19 -1.228946087438576095e-19 -1.255955899816577877e-19 -1.282965712733109633e-19 -1.309975526199868741e-19 -1.336985340228383577e-19
0.000000000000000000e+00 0.000000000000000000e+00 0.000000000000000000e+00 0.000000000000000000e+00 0.000000000000000000e+00 0.000000000000000000e+00 0.000000000000000000e+00 0.000000000000000000e+00 0.000000000000000000e+00 0.000000000000000000e+00 0.000000000000000000e+00 0.000000000000000000e+00 0.000000000000000000e+00 0.000000000000000000e+00 0.000000000000000000e+00 0.000000000000000000e+00 0.000000000000000000e+00 0.000000000000000000e+00 0.000000000000000000e+00 0.000000000000000000e+00 0.000000000000000000e+00 0.000000000000000000e+00 0.000000000000000000e+00 0.000000000000000000e+00 0.000000000000000000e+00 0.000000000000000000e+00 0.000000000000000000e+00 0.000000000000000000e+00 0.000000000000000000e+00 0.000000000000000000e+00 0.000000000000000000e+00 0.000000000000000000e+00 0.000000000000000000e+00 0.000000000000000000e+00 0.000000000000000000e+00 0.000000000000000000e+00 0.000000000000000000e+00 0.000000000000000000e+00 0.000000000000000000e+00 0.000000000000000000e+00 0.000000000000000000e+00 0.000000000000000000e+00 0.000000000000000000e+00 0.000000000000000000e+00 0.000000000000000000e+00 0.000000000000000000e+00 0.000000000000000000e+00 0.000000000000000000e+00 0.000000000000000000e+00 0.000000000000000000e+00 0.000000000000000000e+00 0.000000000000000000e+00 0.000000000000000000e+00 0.000000000000000000e+00 0.000000000000000000e+00 0.000000000000000000e+00 0.000000000000000000e+00 0.000000000000000000e+00 0.000000000000000000e+00 0.000000000000000000e+00 0.000000000000000000e+00 0.000000000000000000e+00 0.000000000000000000e+00 0.000000000000000000e+00 0.000000000000000000e+00 0.000000000000000000e+00 0.000000000000000000e+00 0.000000000000000000e+00 0.000000000000000000e+00 0.000000000000000000e+00 0.000000000000000000e+00 0.000000000000000000e+00 0.000000000000000000e+00 0.000000000000000000e+00 0.000000000000000000e+00 0.000000000000000000e+00 0.000000000000000000e+00 0.000000000000000000e+00 0.000000000000000000e+00 0.000000000000000000e+00 0.000000000000000000e+00 0.000000000000000000e+00 0.000000000000000000e+00 0.000000000000000000e+00 0.000000000000000000e+00 0.000000000000000000e+00 0.000000000000000000e+00 0.000000000000000000e+00 0.000000000000000000e+00 0.000000000000000000e+00 0.000000000000000000e+00 0.000000000000000000e+00 0.000000000000000000e+00 0.000000000000000000e+00 0.000000000000000000e+00 0.000000000000000000e+00 0.000000000000000000e+00 0.000000000000000000e+00 0.000000000000000000e+00 0.000000000000000000e+00
