# 
#                 ----------------------------------------------------
#                 Data from a 3D direct N-body simulation. 
# 
#                 rows are i-particle; 
#                 coumns are :mass, tag, x ,y, z, vx, vy, vz, ax, ay, az
# 
#                 NTHU, Computational Physics Lab
# 
#                 ----------------------------------------------------
#                 Time = 0.7999999999999999
1.000000000000000000e+00 2.000000000000000000e+00 3.000000000000000000e+00 4.000000000000000000e+00 5.000000000000000000e+00 6.000000000000000000e+00 7.000000000000000000e+00 8.000000000000000000e+00 9.000000000000000000e+00 1.000000000000000000e+01 1.100000000000000000e+01 1.200000000000000000e+01 1.300000000000000000e+01 1.400000000000000000e+01 1.500000000000000000e+01 1.600000000000000000e+01 1.700000000000000000e+01 1.800000000000000000e+01 1.900000000000000000e+01 2.000000000000000000e+01 2.100000000000000000e+01 2.200000000000000000e+01 2.300000000000000000e+01 2.400000000000000000e+01 2.500000000000000000e+01 2.600000000000000000e+01 2.700000000000000000e+01 2.800000000000000000e+01 2.900000000000000000e+01 3.000000000000000000e+01 3.100000000000000000e+01 3.200000000000000000e+01 3.300000000000000000e+01 3.400000000000000000e+01 3.500000000000000000e+01 3.600000000000000000e+01 3.700000000000000000e+01 3.800000000000000000e+01 3.900000000000000000e+01 4.000000000000000000e+01 4.100000000000000000e+01 4.200000000000000000e+01 4.300000000000000000e+01 4.400000000000000000e+01 4.500000000000000000e+01 4.600000000000000000e+01 4.700000000000000000e+01 4.800000000000000000e+01 4.900000000000000000e+01 5.000000000000000000e+01 5.100000000000000000e+01 5.200000000000000000e+01 5.300000000000000000e+01 5.400000000000000000e+01 5.500000000000000000e+01 5.600000000000000000e+01 5.700000000000000000e+01 5.800000000000000000e+01 5.900000000000000000e+01 6.000000000000000000e+01 6.100000000000000000e+01 6.200000000000000000e+01 6.300000000000000000e+01 6.400000000000000000e+01 6.500000000000000000e+01 6.600000000000000000e+01 6.700000000000000000e+01 6.800000000000000000e+01 6.900000000000000000e+01 7.000000000000000000e+01 7.100000000000000000e+01 7.200000000000000000e+01 7.300000000000000000e+01 7.400000000000000000e+01 7.500000000000000000e+01 7.600000000000000000e+01 7.700000000000000000e+01 7.800000000000000000e+01 7.900000000000000000e+01 8.000000000000000000e+01 8.100000000000000000e+01 8.200000000000000000e+01 8.300000000000000000e+01 8.400000000000000000e+01 8.500000000000000000e+01 8.600000000000000000e+01 8.700000000000000000e+01 8.800000000000000000e+01 8.900000000000000000e+01 9.000000000000000000e+01 9.100000000000000000e+01 9.200000000000000000e+01 9.300000000000000000e+01 9.400000000000000000e+01 9.500000000000000000e+01 9.600000000000000000e+01 9.700000000000000000e+01 9.800000000000000000e+01 9.900000000000000000e+01 1.000000000000000000e+02
1.000000000000000000e+00 1.000000000000000000e+00 1.000000000000000000e+00 1.000000000000000000e+00 1.000000000000000000e+00 1.000000000000000000e+00 1.000000000000000000e+00 1.000000000000000000e+00 1.000000000000000000e+00 1.000000000000000000e+00 1.000000000000000000e+00 1.000000000000000000e+00 1.000000000000000000e+00 1.000000000000000000e+00 1.000000000000000000e+00 1.000000000000000000e+00 1.000000000000000000e+00 1.000000000000000000e+00 1.000000000000000000e+00 1.000000000000000000e+00 1.000000000000000000e+00 1.000000000000000000e+00 1.000000000000000000e+00 1.000000000000000000e+00 1.000000000000000000e+00 1.000000000000000000e+00 1.000000000000000000e+00 1.000000000000000000e+00 1.000000000000000000e+00 1.000000000000000000e+00 1.000000000000000000e+00 1.000000000000000000e+00 1.000000000000000000e+00 1.000000000000000000e+00 1.000000000000000000e+00 1.000000000000000000e+00 1.000000000000000000e+00 1.000000000000000000e+00 1.000000000000000000e+00 1.000000000000000000e+00 1.000000000000000000e+00 1.000000000000000000e+00 1.000000000000000000e+00 1.000000000000000000e+00 1.000000000000000000e+00 1.000000000000000000e+00 1.000000000000000000e+00 1.000000000000000000e+00 1.000000000000000000e+00 1.000000000000000000e+00 1.000000000000000000e+00 1.000000000000000000e+00 1.000000000000000000e+00 1.000000000000000000e+00 1.000000000000000000e+00 1.000000000000000000e+00 1.000000000000000000e+00 1.000000000000000000e+00 1.000000000000000000e+00 1.000000000000000000e+00 1.000000000000000000e+00 1.000000000000000000e+00 1.000000000000000000e+00 1.000000000000000000e+00 1.000000000000000000e+00 1.000000000000000000e+00 1.000000000000000000e+00 1.000000000000000000e+00 1.000000000000000000e+00 1.000000000000000000e+00 1.000000000000000000e+00 1.000000000000000000e+00 1.000000000000000000e+00 1.000000000000000000e+00 1.000000000000000000e+00 1.000000000000000000e+00 1.000000000000000000e+00 1.000000000000000000e+00 1.000000000000000000e+00 1.000000000000000000e+00 1.000000000000000000e+00 1.000000000000000000e+00 1.000000000000000000e+00 1.000000000000000000e+00 1.000000000000000000e+00 1.000000000000000000e+00 1.000000000000000000e+00 1.000000000000000000e+00 1.000000000000000000e+00 1.000000000000000000e+00 1.000000000000000000e+00 1.000000000000000000e+00 1.000000000000000000e+00 1.000000000000000000e+00 1.000000000000000000e+00 1.000000000000000000e+00 1.000000000000000000e+00 1.000000000000000000e+00 1.000000000000000000e+00 1.000000000000000000e+00
-2.074568845512855309e-04 -2.032658054064141685e-04 -1.990747281577870354e-04 -1.948836527663074761e-04 -1.906925791928781031e-04 -1.865015073984017729e-04 -1.823104373437829141e-04 -1.781193689899238141e-04 -1.739283022977245645e-04 -1.697372372280909494e-04 -1.655461737419244156e-04 -1.613551118001266000e-04 -1.571640513636012536e-04 -1.529729923932497150e-04 -1.487819348499761418e-04 -1.445908786946815201e-04 -1.403998238882693571e-04 -1.362087703916412353e-04 -1.320177181656996860e-04 -1.278266671713465898e-04 -1.236356173694845594e-04 -1.194445687210158008e-04 -1.152535211868426011e-04 -1.110624747278671665e-04 -1.068714293049916758e-04 -1.026803848791176844e-04 -9.848934141114785924e-05 -9.429829886198402671e-05 -9.010725719252847413e-05 -8.591621636368319066e-05 -8.172517633634948783e-05 -7.753413707143001884e-05 -7.334309852982678641e-05 -6.915206067244102073e-05 -6.496102346017536147e-05 -6.076998685393175036e-05 -5.657895081461180383e-05 -5.238791530311755847e-05 -4.819688028035058329e-05 -4.400584570721284713e-05 -3.981481154460641365e-05 -3.562377775343283833e-05 -3.143274429459421874e-05 -2.724171112899209001e-05 -2.305067821752824478e-05 -1.885964552110468235e-05 -1.466861300062289382e-05 -1.047758061698502589e-05 -6.286548331092879660e-06 -2.095516103847897515e-06 2.095516103847899632e-06 6.286548331092918623e-06 1.047758061698508688e-05 1.466861300062300563e-05 1.885964552110452650e-05 2.305067821752821089e-05 2.724171112899196804e-05 3.143274429459417131e-05 3.562377775343297386e-05 3.981481154460649497e-05 4.400584570721296232e-05 4.819688028035046810e-05 5.238791530311758557e-05 5.657895081461177672e-05 6.076998685393183845e-05 6.496102346017540213e-05 6.915206067244135954e-05 7.334309852982686772e-05 7.753413707142997819e-05 8.172517633634960980e-05 8.591621636368298738e-05 9.010725719252836571e-05 9.429829886198380987e-05 9.848934141114772372e-05 1.026803848791178064e-04 1.068714293049917300e-04 1.110624747278670039e-04 1.152535211868422759e-04 1.194445687210156246e-04 1.236356173694845323e-04 1.278266671713467254e-04 1.320177181656994692e-04 1.362087703916413980e-04 1.403998238882694114e-04 1.445908786946817099e-04 1.487819348499761960e-04 1.529729923932500945e-04 1.571640513636013078e-04 1.613551118001263290e-04 1.655461737419241445e-04 1.697372372280910307e-04 1.739283022977253235e-04 1.781193689899238412e-04 1.823104373437832936e-04 1.865015073984023150e-04 1.906925791928784555e-04 1.948836527663074490e-04 1.990747281577868728e-04 2.032658054064140330e-04 2.074568845512855580e-04
-2.028942586466411730e-19 -1.987953723213778241e-19 -1.946964867560914147e-19 -1.905976019351281304e-19 -1.864987178428135740e-19 -1.823998344634593366e-19 -1.783009517814646635e-19 -1.742020697810971385e-19 -1.701031884466634179e-19 -1.660043077625767819e-19 -1.619054277131081849e-19 -1.578065482825808460e-19 -1.537076694553579474e-19 -1.496087912157510323e-19 -1.455099135481094161e-19 -1.414110364367446180e-19 -1.373121598659952646e-19 -1.332132838202004398e-19 -1.291144082836755628e-19 -1.250155332407648212e-19 -1.209166586757756658e-19 -1.168177845730550767e-19 -1.127189109169184732e-19 -1.086200376917298558e-19 -1.045211648817983845e-19 -1.004222924714337127e-19 -9.632342044502002710e-20 -9.222454878682162558e-20 -8.812567748120484397e-20 -8.402680651249411717e-20 -7.992793586502346157e-20 -7.582906552310407128e-20 -7.173019547110341368e-20 -6.763132569330627358e-20 -6.353245617407030816e-20 -5.943358689773367455e-20 -5.533471784859268905e-20 -5.123584901101888758e-20 -4.713698036931207118e-20 -4.303811190781094467e-20 -3.893924361084541378e-20 -3.484037546274481849e-20 -3.074150744784407196e-20 -2.664263955047411511e-20 -2.254377175495158279e-20 -1.844490404561400924e-20 -1.434603640679330434e-20 -1.024716882282057755e-20 -6.148301278022990131e-21 -2.049433756728455688e-21 2.049433756728410173e-21 6.148301278022632028e-21 1.024716882281971539e-20 1.434603640679512796e-20 1.844490404561132798e-20 2.254377175494818834e-20 2.664263955046577643e-20 3.074150744784411409e-20 3.484037546274705739e-20 3.893924361084323507e-20 4.303811190780153169e-20 4.713698036930741886e-20 5.123584901102187277e-20 5.533471784861167150e-20 5.943358689773399955e-20 6.353245617407654336e-20 6.763132569330760970e-20 7.173019547109046180e-20 7.582906552310230183e-20 7.992793586502093379e-20 8.402680651248985605e-20 8.812567748120709490e-20 9.222454878680370239e-20 9.632342044501364746e-20 1.004222924714463636e-19 1.045211648818032475e-19 1.086200376917320465e-19 1.127189109169211454e-19 1.168177845730561601e-19 1.209166586757746788e-19 1.250155332407590675e-19 1.291144082836772239e-19 1.332132838202167139e-19 1.373121598660074461e-19 1.414110364367582199e-19 1.455099135481105235e-19 1.496087912157447971e-19 1.537076694553604030e-19 1.578065482825671238e-19 1.619054277130991331e-19 1.660043077625640226e-19 1.701031884466762975e-19 1.742020697811047700e-19 1.783009517814617746e-19 1.823998344634752255e-19 1.864987178428141999e-19 1.905976019351266860e-19 1.946964867560872739e-19 1.987953723213690852e-19 2.028942586466411730e-19
0.000000000000000000e+00 0.000000000000000000e+00 0.000000000000000000e+00 0.000000000000000000e+00 0.000000000000000000e+00 0.000000000000000000e+00 0.000000000000000000e+00 0.000000000000000000e+00 0.000000000000000000e+00 0.000000000000000000e+00 0.000000000000000000e+00 0.000000000000000000e+00 0.000000000000000000e+00 0.000000000000000000e+00 0.000000000000000000e+00 0.000000000000000000e+00 0.000000000000000000e+00 0.000000000000000000e+00 0.000000000000000000e+00 0.000000000000000000e+00 0.000000000000000000e+00 0.000000000000000000e+00 0.000000000000000000e+00 0.000000000000000000e+00 0.000000000000000000e+00 0.000000000000000000e+00 0.000000000000000000e+00 0.000000000000000000e+00 0.000000000000000000e+00 0.000000000000000000e+00 0.000000000000000000e+00 0.000000000000000000e+00 0.000000000000000000e+00 0.000000000000000000e+00 0.000000000000000000e+00 0.000000000000000000e+00 0.000000000000000000e+00 0.000000000000000000e+00 0.000000000000000000e+00 0.000000000000000000e+00 0.000000000000000000e+00 0.000000000000000000e+00 0.000000000000000000e+00 0.000000000000000000e+00 0.000000000000000000e+00 0.000000000000000000e+00 0.000000000000000000e+00 0.000000000000000000e+00 0.000000000000000000e+00 0.000000000000000000e+00 0.000000000000000000e+00 0.000000000000000000e+00 0.000000000000000000e+00 0.000000000000000000e+00 0.000000000000000000e+00 0.000000000000000000e+00 0.000000000000000000e+00 0.000000000000000000e+00 0.000000000000000000e+00 0.000000000000000000e+00 0.000000000000000000e+00 0.000000000000000000e+00 0.000000000000000000e+00 0.000000000000000000e+00 0.000000000000000000e+00 0.000000000000000000e+00 0.000000000000000000e+00 0.000000000000000000e+00 0.000000000000000000e+00 0.000000000000000000e+00 0.000000000000000000e+00 0.000000000000000000e+00 0.000000000000000000e+00 0.000000000000000000e+00 0.000000000000000000e+00 0.000000000000000000e+00 0.000000000000000000e+00 0.000000000000000000e+00 0.000000000000000000e+00 0.000000000000000000e+00 0.000000000000000000e+00 0.000000000000000000e+00 0.000000000000000000e+00 0.000000000000000000e+00 0.000000000000000000e+00 0.000000000000000000e+00 0.000000000000000000e+00 0.000000000000000000e+00 0.000000000000000000e+00 0.000000000000000000e+00 0.000000000000000000e+00 0.000000000000000000e+00 0.000000000000000000e+00 0.000000000000000000e+00 0.000000000000000000e+00 0.000000000000000000e+00 0.000000000000000000e+00 0.000000000000000000e+00 0.000000000000000000e+00 0.000000000000000000e+00
9.244397611738016047e-04 9.057644250473175299e-04 8.870890757818372706e-04 8.684137136482635933e-04 8.497383389175027337e-04 8.310629518604565908e-04 8.123875527480222932e-04 7.937121418511020651e-04 7.750367194406158032e-04 7.563612857874547814e-04 7.376858411625227419e-04 7.190103858367340520e-04 7.003349200809847559e-04 6.816594441661878116e-04 6.629839583632403475e-04 6.443084629430546710e-04 6.256329581765321390e-04 6.069574443345806137e-04 5.882819216881081739e-04 5.696063905080179113e-04 5.509308510652202902e-04 5.322553036306200283e-04 5.135797484751231448e-04 4.949041858696371764e-04 4.762286160850698769e-04 4.575530393923310599e-04 4.388774560623238171e-04 4.202018663659594258e-04 4.015262705741423871e-04 3.828506689577829483e-04 3.641750617877925495e-04 3.454994493350732523e-04 3.268238318705371471e-04 3.081482096650912288e-04 2.894725829896455278e-04 2.707969521151066053e-04 2.521213173123841122e-04 2.334456788523868594e-04 2.147700370060250672e-04 1.960943920442064078e-04 1.774187442378393127e-04 1.587430938578343273e-04 1.400674411750996932e-04 1.213917864605448311e-04 1.027161299850799206e-04 8.404047201961283736e-05 6.536481283505441147e-05 4.668915270231255928e-05 2.801349189229659640e-05 9.337830675917208970e-06 -9.337830675917220828e-06 -2.801349189229641344e-05 -4.668915270231235599e-05 -6.536481283505395068e-05 -8.404047201961346077e-05 -1.027161299850800426e-04 -1.213917864605451293e-04 -1.400674411750997474e-04 -1.587430938578339749e-04 -1.774187442378389332e-04 -1.960943920442060012e-04 -2.147700370060253924e-04 -2.334456788523870492e-04 -2.521213173123849254e-04 -2.707969521151063885e-04 -2.894725829896456905e-04 -3.081482096650900362e-04 -3.268238318705366050e-04 -3.454994493350734691e-04 -3.641750617877920074e-04 -3.828506689577834362e-04 -4.015262705741432544e-04 -4.202018663659602389e-04 -4.388774560623242508e-04 -4.575530393923310057e-04 -4.762286160850698227e-04 -4.949041858696381522e-04 -5.135797484751249880e-04 -5.322553036306203536e-04 -5.509308510652202902e-04 -5.696063905080176945e-04 -5.882819216881095834e-04 -6.069574443345802884e-04 -6.256329581765320306e-04 -6.443084629430532615e-04 -6.629839583632400222e-04 -6.816594441661862937e-04 -7.003349200809842138e-04 -7.190103858367349193e-04 -7.376858411625229588e-04 -7.563612857874539141e-04 -7.750367194406132011e-04 -7.937121418511031493e-04 -8.123875527480200164e-04 -8.310629518604546392e-04 -8.497383389175015411e-04 -8.684137136482635933e-04 -8.870890757818377043e-04 -9.057644250473175299e-04 -9.244397611738014962e-04
8.002418942652941484e-19 7.840755475282267142e-19 7.679091912293464921e-19 7.517428255657527675e-19 7.355764507346118482e-19 7.194100669331276937e-19 7.032436743582364630e-19 6.870772732072806865e-19 6.709108636774889757e-19 6.547444459657447191e-19 6.385780202693910248e-19 6.224115867855960302e-19 6.062451457114076944e-19 5.900786972440300735e-19 5.739122415805626453e-19 5.577457789182079250e-19 5.415793094540944720e-19 5.254128333853375570e-19 5.092463509091452802e-19 4.930798622226137492e-19 4.769133675229742719e-19 4.607468670073226668e-19 4.445803608728566343e-19 4.284138493166181634e-19 4.122473325358289803e-19 3.960808107277032521e-19 3.799142840892207120e-19 3.637477528177448347e-19 3.475812171103093278e-19 3.314146771640871914e-19 3.152481331762154591e-19 2.990815853439102720e-19 2.829150338641997043e-19 2.667484789343830972e-19 2.505819207515259840e-19 2.344153595127523503e-19 2.182487954153233556e-19 2.020822286562609111e-19 1.859156594328113710e-19 1.697490879421023799e-19 1.535825143812844287e-19 1.374159389475146529e-19 1.212493618379305676e-19 1.050827832496790165e-19 8.891620337995819341e-20 7.274962242589614027e-20 5.658304058463913507e-20 4.041645805333799981e-20 2.424987502915355027e-20 8.083291709246287754e-21 -8.083291709246370509e-21 -2.424987502915465166e-20 -4.041645805334049750e-20 -5.658304058463341747e-20 -7.274962242590463844e-20 -8.891620337996929158e-20 -1.050827832497054017e-19 -1.212493618379298454e-19 -1.374159389475077918e-19 -1.535825143812918435e-19 -1.697490879421328818e-19 -1.859156594328268747e-19 -2.020822286562508722e-19 -2.182487954152633147e-19 -2.344153595127511466e-19 -2.505819207515055692e-19 -2.667484789343790527e-19 -2.829150338642409192e-19 -2.990815853439155202e-19 -3.152481331762238369e-19 -3.314146771641015395e-19 -3.475812171103024907e-19 -3.637477528178011682e-19 -3.799142840892406935e-19 -3.960808107276620372e-19 -4.122473325358140543e-19 -4.284138493166121449e-19 -4.445803608728484491e-19 -4.607468670073190075e-19 -4.769133675229775459e-19 -4.930798622226323344e-19 -5.092463509091392135e-19 -5.254128333852865198e-19 -5.415793094540551830e-19 -5.577457789181656508e-19 -5.739122415805578304e-19 -5.900786972440513550e-19 -6.062451457113973907e-19 -6.224115867856395562e-19 -6.385780202694207804e-19 -6.547444459657865118e-19 -6.709108636774481460e-19 -6.870772732072565161e-19 -7.032436743582453223e-19 -7.194100669330781010e-19 -7.355764507346108852e-19 -7.517428255657566194e-19 -7.679091912293605514e-19 -7.840755475282542550e-19 -8.002418942652941484e-19
0.000000000000000000e+00 0.000000000000000000e+00 0.000000000000000000e+00 0.000000000000000000e+00 0.000000000000000000e+00 0.000000000000000000e+00 0.000000000000000000e+00 0.000000000000000000e+00 0.000000000000000000e+00 0.000000000000000000e+00 0.000000000000000000e+00 0.000000000000000000e+00 0.000000000000000000e+00 0.000000000000000000e+00 0.000000000000000000e+00 0.000000000000000000e+00 0.000000000000000000e+00 0.000000000000000000e+00 0.000000000000000000e+00 0.000000000000000000e+00 0.000000000000000000e+00 0.000000000000000000e+00 0.000000000000000000e+00 0.000000000000000000e+00 0.000000000000000000e+00 0.000000000000000000e+00 0.000000000000000000e+00 0.000000000000000000e+00 0.000000000000000000e+00 0.000000000000000000e+00 0.000000000000000000e+00 0.000000000000000000e+00 0.000000000000000000e+00 0.000000000000000000e+00 0.000000000000000000e+00 0.000000000000000000e+00 0.000000000000000000e+00 0.000000000000000000e+00 0.000000000000000000e+00 0.000000000000000000e+00 0.000000000000000000e+00 0.000000000000000000e+00 0.000000000000000000e+00 0.000000000000000000e+00 0.000000000000000000e+00 0.000000000000000000e+00 0.000000000000000000e+00 0.000000000000000000e+00 0.000000000000000000e+00 0.000000000000000000e+00 0.000000000000000000e+00 0.000000000000000000e+00 0.000000000000000000e+00 0.000000000000000000e+00 0.000000000000000000e+00 0.000000000000000000e+00 0.000000000000000000e+00 0.000000000000000000e+00 0.000000000000000000e+00 0.000000000000000000e+00 0.000000000000000000e+00 0.000000000000000000e+00 0.000000000000000000e+00 0.000000000000000000e+00 0.000000000000000000e+00 0.000000000000000000e+00 0.000000000000000000e+00 0.000000000000000000e+00 0.000000000000000000e+00 0.000000000000000000e+00 0.000000000000000000e+00 0.000000000000000000e+00 0.000000000000000000e+00 0.000000000000000000e+00 0.000000000000000000e+00 0.000000000000000000e+00 0.000000000000000000e+00 0.000000000000000000e+00 0.000000000000000000e+00 0.000000000000000000e+00 0.000000000000000000e+00 0.000000000000000000e+00 0.000000000000000000e+00 0.000000000000000000e+00 0.000000000000000000e+00 0.000000000000000000e+00 0.000000000000000000e+00 0.000000000000000000e+00 0.000000000000000000e+00 0.000000000000000000e+00 0.000000000000000000e+00 0.000000000000000000e+00 0.000000000000000000e+00 0.000000000000000000e+00 0.000000000000000000e+00 0.000000000000000000e+00 0.000000000000000000e+00 0.000000000000000000e+00 0.000000000000000000e+00 0.000000000000000000e+00
9.904845537982456122e-03 9.704748656385377495e-03 9.504651713070510002e-03 9.304554709310340968e-03 9.104457646377442717e-03 8.904360525544333799e-03 8.704263348083498067e-03 8.504166115267445397e-03 8.304068828368777605e-03 8.103971488659976810e-03 7.903874097413516459e-03 7.703776655902012244e-03 7.503679165397913325e-03 7.303581627173820652e-03 7.103484042502185118e-03 6.903386412655587723e-03 6.703288738906540943e-03 6.503191022527569400e-03 6.303093264791220264e-03 6.102995466969989534e-03 5.902897630336444330e-03 5.702799756163095396e-03 5.502701845722469953e-03 5.302603900287113439e-03 5.102505921129547005e-03 4.902407909522323026e-03 4.702309866737938368e-03 4.502211794048962754e-03 4.302113692727906925e-03 4.102015564047314586e-03 3.901917409279732907e-03 3.701819229697664825e-03 3.501721026573678328e-03 3.301622801180274618e-03 3.101524554790022550e-03 2.901426288675441108e-03 2.701328004109069657e-03 2.501229702363433685e-03 2.301131384711095976e-03 2.101033052424569874e-03 1.900934706776397131e-03 1.700836349039118412e-03 1.500737980485270483e-03 1.300639602387389671e-03 1.100541216018015777e-03 9.004428226496817697e-04 7.003444235549303749e-04 5.002460200062946701e-04 3.001476132763141835e-04 1.000492046375279419e-04 -1.000492046375276844e-04 -3.001476132763132619e-04 -5.002460200062946701e-04 -7.003444235549286401e-04 -9.004428226496848054e-04 -1.100541216018017295e-03 -1.300639602387390105e-03 -1.500737980485270049e-03 -1.700836349039117979e-03 -1.900934706776395613e-03 -2.101033052424568573e-03 -2.301131384711094675e-03 -2.501229702363435420e-03 -2.701328004109073561e-03 -2.901426288675441542e-03 -3.101524554790024719e-03 -3.301622801180270714e-03 -3.501721026573676159e-03 -3.701819229697664825e-03 -3.901917409279729871e-03 -4.102015564047312851e-03 -4.302113692727909527e-03 -4.502211794048965356e-03 -4.702309866737939235e-03 -4.902407909522323026e-03 -5.102505921129546138e-03 -5.302603900287116909e-03 -5.502701845722476025e-03 -5.702799756163092794e-03 -5.902897630336443463e-03 -6.102995466969992136e-03 -6.303093264791228070e-03 -6.503191022527569400e-03 -6.703288738906540943e-03 -6.903386412655580784e-03 -7.103484042502184251e-03 -7.303581627173817183e-03 -7.503679165397911591e-03 -7.703776655902015713e-03 -7.903874097413511254e-03 -8.103971488659976810e-03 -8.304068828368775870e-03 -8.504166115267455806e-03 -8.704263348083489393e-03 -8.904360525544330329e-03 -9.104457646377442717e-03 -9.304554709310337499e-03 -9.504651713070508268e-03 -9.704748656385375760e-03 -9.904845537982454387e-03
9.432947119434447263e-18 9.242383444632597696e-18 9.051819713904201571e-18 8.861255928402279249e-18 8.670692089280003627e-18 8.480128197690556842e-18 8.289564254786720441e-18 8.099000261721910758e-18 7.908436219649403915e-18 7.717872129721861283e-18 7.527307993092739251e-18 7.336743810915176820e-18 7.146179584342146587e-18 6.955615314526829151e-18 6.765051002622283392e-18 6.574486649781715330e-18 6.383922257158216973e-18 6.193357825904811762e-18 6.002793357174780446e-18 5.812228852121110258e-18 5.621664311897088879e-18 5.431099737655739753e-18 5.240535130550255804e-18 5.049970491733594993e-18 4.859405822358992616e-18 4.668841123579674722e-18 4.478276396548485259e-18 4.287711642418914514e-18 4.097146862343874226e-18 3.906582057476544224e-18 3.716017228970009580e-18 3.525452377977541026e-18 3.334887505652015635e-18 3.144322613146829710e-18 2.953757701614969329e-18 2.763192772209501078e-18 2.572627826083747687e-18 2.382062864390622052e-18 2.191497888283401839e-18 2.000932898915188297e-18 1.810367897439089996e-18 1.619802885008259030e-18 1.429237862775794724e-18 1.238672831894810269e-18 1.048107793518523820e-18 8.575427488000176559e-19 6.669776988924102650e-19 4.764126449488325567e-19 2.858475881224259371e-19 9.528252956633622972e-20 -9.528252956633563991e-20 -2.858475881224277667e-19 -4.764126449488366011e-19 -6.669776988924003465e-19 -8.575427488000318115e-19 -1.048107793518543657e-18 -1.238672831894856106e-18 -1.429237862775792605e-18 -1.619802885008247474e-18 -1.810367897439103477e-18 -2.000932898915243379e-18 -2.191497888283432654e-18 -2.382062864390603949e-18 -2.572627826083646383e-18 -2.763192772209499152e-18 -2.953757701614933507e-18 -3.144322613146824317e-18 -3.334887505652084583e-18 -3.525452377977549500e-18 -3.716017228970027298e-18 -3.906582057476574268e-18 -4.097146862343863441e-18 -4.287711642419004647e-18 -4.478276396548516844e-18 -4.668841123579601537e-18 -4.859405822358970275e-18 -5.049970491733587290e-18 -5.240535130550247330e-18 -5.431099737655729739e-18 -5.621664311897093502e-18 -5.812228852121141843e-18 -6.002793357174770431e-18 -6.193357825904725481e-18 -6.383922257158146869e-18 -6.574486649781645227e-18 -6.765051002622271836e-18 -6.955615314526872292e-18 -7.146179584342123476e-18 -7.336743810915256939e-18 -7.527307993092794718e-18 -7.717872129721933698e-18 -7.908436219649336123e-18 -8.099000261721872239e-18 -8.289564254786732767e-18 -8.480128197690472101e-18 -8.670692089280006708e-18 -8.861255928402285412e-18 -9.051819713904227763e-18 -9.242383444632639296e-18 -9.432947119434447263e-18
0.000000000000000000e+00 0.000000000000000000e+00 0.000000000000000000e+00 0.000000000000000000e+00 0.000000000000000000e+00 0.000000000000000000e+00 0.000000000000000000e+00 0.000000000000000000e+00 0.000000000000000000e+00 0.000000000000000000e+00 0.000000000000000000e+00 0.000000000000000000e+00 0.000000000000000000e+00 0.000000000000000000e+00 0.000000000000000000e+00 0.000000000000000000e+00 0.000000000000000000e+00 0.000000000000000000e+00 0.000000000000000000e+00 0.000000000000000000e+00 0.000000000000000000e+00 0.000000000000000000e+00 0.000000000000000000e+00 0.000000000000000000e+00 0.000000000000000000e+00 0.000000000000000000e+00 0.000000000000000000e+00 0.000000000000000000e+00 0.000000000000000000e+00 0.000000000000000000e+00 0.000000000000000000e+00 0.000000000000000000e+00 0.000000000000000000e+00 0.000000000000000000e+00 0.000000000000000000e+00 0.000000000000000000e+00 0.000000000000000000e+00 0.000000000000000000e+00 0.000000000000000000e+00 0.000000000000000000e+00 0.000000000000000000e+00 0.000000000000000000e+00 0.000000000000000000e+00 0.000000000000000000e+00 0.000000000000000000e+00 0.000000000000000000e+00 0.000000000000000000e+00 0.000000000000000000e+00 0.000000000000000000e+00 0.000000000000000000e+00 0.000000000000000000e+00 0.000000000000000000e+00 0.000000000000000000e+00 0.000000000000000000e+00 0.000000000000000000e+00 0.000000000000000000e+00 0.000000000000000000e+00 0.000000000000000000e+00 0.000000000000000000e+00 0.000000000000000000e+00 0.000000000000000000e+00 0.000000000000000000e+00 0.000000000000000000e+00 0.000000000000000000e+00 0.000000000000000000e+00 0.000000000000000000e+00 0.000000000000000000e+00 0.000000000000000000e+00 0.000000000000000000e+00 0.000000000000000000e+00 0.000000000000000000e+00 0.000000000000000000e+00 0.000000000000000000e+00 0.000000000000000000e+00 0.000000000000000000e+00 0.000000000000000000e+00 0.000000000000000000e+00 0.000000000000000000e+00 0.000000000000000000e+00 0.000000000000000000e+00 0.000000000000000000e+00 0.000000000000000000e+00 0.000000000000000000e+00 0.000000000000000000e+00 0.000000000000000000e+00 0.000000000000000000e+00 0.000000000000000000e+00 0.000000000000000000e+00 0.000000000000000000e+00 0.000000000000000000e+00 0.000000000000000000e+00 0.000000000000000000e+00 0.000000000000000000e+00 0.000000000000000000e+00 0.000000000000000000e+00 0.000000000000000000e+00 0.000000000000000000e+00 0.000000000000000000e+00 0.000000000000000000e+00 0.000000000000000000e+00
