# 
#                 ----------------------------------------------------
#                 Data from a 3D direct N-body simulation. 
# 
#                 rows are i-particle; 
#                 coumns are :mass, tag, x ,y, z, vx, vy, vz, ax, ay, az
# 
#                 NTHU, Computational Physics Lab
# 
#                 ----------------------------------------------------
#                 Time = 0.4
1.000000000000000000e+00 2.000000000000000000e+00 3.000000000000000000e+00 4.000000000000000000e+00 5.000000000000000000e+00 6.000000000000000000e+00 7.000000000000000000e+00 8.000000000000000000e+00 9.000000000000000000e+00 1.000000000000000000e+01 1.100000000000000000e+01 1.200000000000000000e+01 1.300000000000000000e+01 1.400000000000000000e+01 1.500000000000000000e+01 1.600000000000000000e+01 1.700000000000000000e+01 1.800000000000000000e+01 1.900000000000000000e+01 2.000000000000000000e+01 2.100000000000000000e+01 2.200000000000000000e+01 2.300000000000000000e+01 2.400000000000000000e+01 2.500000000000000000e+01 2.600000000000000000e+01 2.700000000000000000e+01 2.800000000000000000e+01 2.900000000000000000e+01 3.000000000000000000e+01 3.100000000000000000e+01 3.200000000000000000e+01 3.300000000000000000e+01 3.400000000000000000e+01 3.500000000000000000e+01 3.600000000000000000e+01 3.700000000000000000e+01 3.800000000000000000e+01 3.900000000000000000e+01 4.000000000000000000e+01 4.100000000000000000e+01 4.200000000000000000e+01 4.300000000000000000e+01 4.400000000000000000e+01 4.500000000000000000e+01 4.600000000000000000e+01 4.700000000000000000e+01 4.800000000000000000e+01 4.900000000000000000e+01 5.000000000000000000e+01 5.100000000000000000e+01 5.200000000000000000e+01 5.300000000000000000e+01 5.400000000000000000e+01 5.500000000000000000e+01 5.600000000000000000e+01 5.700000000000000000e+01 5.800000000000000000e+01 5.900000000000000000e+01 6.000000000000000000e+01 6.100000000000000000e+01 6.200000000000000000e+01 6.300000000000000000e+01 6.400000000000000000e+01 6.500000000000000000e+01 6.600000000000000000e+01 6.700000000000000000e+01 6.800000000000000000e+01 6.900000000000000000e+01 7.000000000000000000e+01 7.100000000000000000e+01 7.200000000000000000e+01 7.300000000000000000e+01 7.400000000000000000e+01 7.500000000000000000e+01 7.600000000000000000e+01 7.700000000000000000e+01 7.800000000000000000e+01 7.900000000000000000e+01 8.000000000000000000e+01 8.100000000000000000e+01 8.200000000000000000e+01 8.300000000000000000e+01 8.400000000000000000e+01 8.500000000000000000e+01 8.600000000000000000e+01 8.700000000000000000e+01 8.800000000000000000e+01 8.900000000000000000e+01 9.000000000000000000e+01 9.100000000000000000e+01 9.200000000000000000e+01 9.300000000000000000e+01 9.400000000000000000e+01 9.500000000000000000e+01 9.600000000000000000e+01 9.700000000000000000e+01 9.800000000000000000e+01 9.900000000000000000e+01 1.000000000000000000e+02
1.000000000000000000e+00 1.000000000000000000e+00 1.000000000000000000e+00 1.000000000000000000e+00 1.000000000000000000e+00 1.000000000000000000e+00 1.000000000000000000e+00 1.000000000000000000e+00 1.000000000000000000e+00 1.000000000000000000e+00 1.000000000000000000e+00 1.000000000000000000e+00 1.000000000000000000e+00 1.000000000000000000e+00 1.000000000000000000e+00 1.000000000000000000e+00 1.000000000000000000e+00 1.000000000000000000e+00 1.000000000000000000e+00 1.000000000000000000e+00 1.000000000000000000e+00 1.000000000000000000e+00 1.000000000000000000e+00 1.000000000000000000e+00 1.000000000000000000e+00 1.000000000000000000e+00 1.000000000000000000e+00 1.000000000000000000e+00 1.000000000000000000e+00 1.000000000000000000e+00 1.000000000000000000e+00 1.000000000000000000e+00 1.000000000000000000e+00 1.000000000000000000e+00 1.000000000000000000e+00 1.000000000000000000e+00 1.000000000000000000e+00 1.000000000000000000e+00 1.000000000000000000e+00 1.000000000000000000e+00 1.000000000000000000e+00 1.000000000000000000e+00 1.000000000000000000e+00 1.000000000000000000e+00 1.000000000000000000e+00 1.000000000000000000e+00 1.000000000000000000e+00 1.000000000000000000e+00 1.000000000000000000e+00 1.000000000000000000e+00 1.000000000000000000e+00 1.000000000000000000e+00 1.000000000000000000e+00 1.000000000000000000e+00 1.000000000000000000e+00 1.000000000000000000e+00 1.000000000000000000e+00 1.000000000000000000e+00 1.000000000000000000e+00 1.000000000000000000e+00 1.000000000000000000e+00 1.000000000000000000e+00 1.000000000000000000e+00 1.000000000000000000e+00 1.000000000000000000e+00 1.000000000000000000e+00 1.000000000000000000e+00 1.000000000000000000e+00 1.000000000000000000e+00 1.000000000000000000e+00 1.000000000000000000e+00 1.000000000000000000e+00 1.000000000000000000e+00 1.000000000000000000e+00 1.000000000000000000e+00 1.000000000000000000e+00 1.000000000000000000e+00 1.000000000000000000e+00 1.000000000000000000e+00 1.000000000000000000e+00 1.000000000000000000e+00 1.000000000000000000e+00 1.000000000000000000e+00 1.000000000000000000e+00 1.000000000000000000e+00 1.000000000000000000e+00 1.000000000000000000e+00 1.000000000000000000e+00 1.000000000000000000e+00 1.000000000000000000e+00 1.000000000000000000e+00 1.000000000000000000e+00 1.000000000000000000e+00 1.000000000000000000e+00 1.000000000000000000e+00 1.000000000000000000e+00 1.000000000000000000e+00 1.000000000000000000e+00 1.000000000000000000e+00 1.000000000000000000e+00
-7.538765214922583154e-05 -7.386466949804026830e-05 -7.234168683335365040e-05 -7.081870415544445517e-05 -6.929572146459106506e-05 -6.777273876107168637e-05 -6.624975604516508102e-05 -6.472677331714926554e-05 -6.320379057730252754e-05 -6.168080782590360184e-05 -6.015782506323063373e-05 -5.863484228956193113e-05 -5.711185950517601881e-05 -5.558887671035106916e-05 -5.406589390536579667e-05 -5.254291109049826533e-05 -5.101992826602698634e-05 -4.949694543223026084e-05 -4.797396258938660006e-05 -4.645097973777413572e-05 -4.492799687767140614e-05 -4.340501400935673957e-05 -4.188203113310847103e-05 -4.035904824920508464e-05 -3.883606535792490864e-05 -3.731308245954618997e-05 -3.579009955434746693e-05 -3.426711664260697970e-05 -3.274413372460313105e-05 -3.122115080061435089e-05 -2.969816787091893019e-05 -2.817518493579528190e-05 -2.665220199552177156e-05 -2.512921905037671723e-05 -2.360623610063859965e-05 -2.208325314658573688e-05 -2.056027018849647075e-05 -1.903728722664925824e-05 -1.751430426132235646e-05 -1.599132129279421562e-05 -1.446833832134315552e-05 -1.294535534724758401e-05 -1.142237237078590728e-05 -9.899389392236416309e-06 -8.376406411877503720e-06 -6.853423429987550279e-06 -5.330440446844917272e-06 -3.807457462728018499e-06 -2.284474477915182209e-06 -7.614914926847894877e-07 7.614914926847893819e-07 2.284474477915184750e-06 3.807457462728010452e-06 5.330440446844934213e-06 6.853423429987536727e-06 8.376406411877498638e-06 9.899389392236382427e-06 1.142237237078588865e-05 1.294535534724759756e-05 1.446833832134315213e-05 1.599132129279419529e-05 1.751430426132234629e-05 1.903728722664926840e-05 2.056027018849653173e-05 2.208325314658575721e-05 2.360623610063861997e-05 2.512921905037673417e-05 2.665220199552175462e-05 2.817518493579527852e-05 2.969816787091894035e-05 3.122115080061433056e-05 3.274413372460313783e-05 3.426711664260693226e-05 3.579009955434744660e-05 3.731308245954623740e-05 3.883606535792493575e-05 4.035904824920509820e-05 4.188203113310848459e-05 4.340501400935675312e-05 4.492799687767141291e-05 4.645097973777414927e-05 4.797396258938660006e-05 4.949694543223035571e-05 5.101992826602704055e-05 5.254291109049831954e-05 5.406589390536578989e-05 5.558887671035110981e-05 5.711185950517596460e-05 5.863484228956187692e-05 6.015782506323055919e-05 6.168080782590356118e-05 6.320379057730260886e-05 6.472677331714929265e-05 6.624975604516506746e-05 6.777273876107175413e-05 6.929572146459109217e-05 7.081870415544445517e-05 7.234168683335362329e-05 7.386466949804024120e-05 7.538765214922584510e-05
-5.429247011679243667e-20 -5.319565438692685863e-20 -5.209883854390219540e-20 -5.100202259005314353e-20 -4.990520652771244353e-20 -4.880839035921118685e-20 -4.771157408688928808e-20 -4.661475771307357754e-20 -4.551794124009522491e-20 -4.442112467029486101e-20 -4.332430800600065225e-20 -4.222749124954455074e-20 -4.113067440326289607e-20 -4.003385746948671948e-20 -3.893704045055183698e-20 -3.784022334878876220e-20 -3.674340616653199911e-20 -3.564658890611489608e-20 -3.454977156987007326e-20 -3.345295416013093321e-20 -3.235613667922942801e-20 -3.125931912949987503e-20 -3.016250151327414812e-20 -2.906568383288838827e-20 -2.796886609067406608e-20 -2.687204828896229707e-20 -2.577523043009106689e-20 -2.467841251638775656e-20 -2.358159455018862443e-20 -2.248477653382658857e-20 -2.138795846963488300e-20 -2.029114035994526722e-20 -1.919432220709388823e-20 -1.809750401341017636e-20 -1.700068578122971288e-20 -1.590386751288625241e-20 -1.480704921071001671e-20 -1.371023087703806461e-20 -1.261341251420050351e-20 -1.151659412453167184e-20 -1.041977571036442146e-20 -9.322957274032055617e-21 -8.226138817868322935e-21 -7.129320344206054206e-21 -6.032501855377536297e-21 -4.935683353716529866e-21 -3.838864841556344179e-21 -2.742046321230390064e-21 -1.645227795071449792e-21 -5.484092654126114480e-22 5.484092654126069341e-22 1.645227795071424590e-21 2.742046321230283988e-21 3.838864841556528496e-21 4.935683353716274831e-21 6.032501855377262454e-21 7.129320344205262769e-21 8.226138817868232657e-21 9.322957274032297863e-21 1.041977571036427551e-20 1.151659412453084278e-20 1.261341251420011531e-20 1.371023087703828128e-20 1.480704921071178315e-20 1.590386751288626444e-20 1.700068578123021843e-20 1.809750401341027266e-20 1.919432220709272365e-20 2.029114035994509569e-20 2.138795846963466934e-20 2.248477653382618834e-20 2.358159455018887119e-20 2.467841251638613156e-20 2.577523043009044096e-20 2.687204828896334429e-20 2.796886609067452951e-20 2.906568383288866513e-20 3.016250151327438886e-20 3.125931912950000142e-20 3.235613667922937384e-20 3.345295416013045774e-20 3.454977156987012743e-20 3.564658890611649701e-20 3.674340616653311855e-20 3.784022334879009230e-20 3.893704045055181290e-20 4.003385746948632226e-20 4.113067440326282986e-20 4.222749124954324472e-20 4.332430800599983975e-20 4.442112467029381980e-20 4.551794124009642260e-20 4.661475771307426967e-20 4.771157408688894502e-20 4.880839035921272759e-20 4.990520652771256391e-20 5.100202259005298103e-20 5.209883854390191855e-20 5.319565438692602205e-20 5.429247011679240056e-20
0.000000000000000000e+00 0.000000000000000000e+00 0.000000000000000000e+00 0.000000000000000000e+00 0.000000000000000000e+00 0.000000000000000000e+00 0.000000000000000000e+00 0.000000000000000000e+00 0.000000000000000000e+00 0.000000000000000000e+00 0.000000000000000000e+00 0.000000000000000000e+00 0.000000000000000000e+00 0.000000000000000000e+00 0.000000000000000000e+00 0.000000000000000000e+00 0.000000000000000000e+00 0.000000000000000000e+00 0.000000000000000000e+00 0.000000000000000000e+00 0.000000000000000000e+00 0.000000000000000000e+00 0.000000000000000000e+00 0.000000000000000000e+00 0.000000000000000000e+00 0.000000000000000000e+00 0.000000000000000000e+00 0.000000000000000000e+00 0.000000000000000000e+00 0.000000000000000000e+00 0.000000000000000000e+00 0.000000000000000000e+00 0.000000000000000000e+00 0.000000000000000000e+00 0.000000000000000000e+00 0.000000000000000000e+00 0.000000000000000000e+00 0.000000000000000000e+00 0.000000000000000000e+00 0.000000000000000000e+00 0.000000000000000000e+00 0.000000000000000000e+00 0.000000000000000000e+00 0.000000000000000000e+00 0.000000000000000000e+00 0.000000000000000000e+00 0.000000000000000000e+00 0.000000000000000000e+00 0.000000000000000000e+00 0.000000000000000000e+00 0.000000000000000000e+00 0.000000000000000000e+00 0.000000000000000000e+00 0.000000000000000000e+00 0.000000000000000000e+00 0.000000000000000000e+00 0.000000000000000000e+00 0.000000000000000000e+00 0.000000000000000000e+00 0.000000000000000000e+00 0.000000000000000000e+00 0.000000000000000000e+00 0.000000000000000000e+00 0.000000000000000000e+00 0.000000000000000000e+00 0.000000000000000000e+00 0.000000000000000000e+00 0.000000000000000000e+00 0.000000000000000000e+00 0.000000000000000000e+00 0.000000000000000000e+00 0.000000000000000000e+00 0.000000000000000000e+00 0.000000000000000000e+00 0.000000000000000000e+00 0.000000000000000000e+00 0.000000000000000000e+00 0.000000000000000000e+00 0.000000000000000000e+00 0.000000000000000000e+00 0.000000000000000000e+00 0.000000000000000000e+00 0.000000000000000000e+00 0.000000000000000000e+00 0.000000000000000000e+00 0.000000000000000000e+00 0.000000000000000000e+00 0.000000000000000000e+00 0.000000000000000000e+00 0.000000000000000000e+00 0.000000000000000000e+00 0.000000000000000000e+00 0.000000000000000000e+00 0.000000000000000000e+00 0.000000000000000000e+00 0.000000000000000000e+00 0.000000000000000000e+00 0.000000000000000000e+00 0.000000000000000000e+00 0.000000000000000000e+00
-7.923960265555289421e-04 -7.763880257628020826e-04 -7.603800249857636286e-04 -7.443720242240897287e-04 -7.283640234774579414e-04 -7.123560227455438734e-04 -6.963480220280261670e-04 -6.803400213245794532e-04 -6.643320206348797725e-04 -6.483240199586056589e-04 -6.323160192954323938e-04 -6.163080186450363429e-04 -6.003000180070943055e-04 -5.842920173812823220e-04 -5.682840167672783844e-04 -5.522760161647577741e-04 -5.362680155733973988e-04 -5.202600149928740579e-04 -5.042520144228641171e-04 -4.882440138630433457e-04 -4.722360133130890309e-04 -4.562280127726773757e-04 -4.402200122414849084e-04 -4.242120117191887536e-04 -4.082040112054651686e-04 -3.921960106999900853e-04 -3.761880102024405198e-04 -3.601800097124927837e-04 -3.441720092298233510e-04 -3.281640087541090752e-04 -3.121560082850261052e-04 -2.961480078222509691e-04 -2.801400073654605749e-04 -2.641320069143305834e-04 -2.481240064685386070e-04 -2.321160060277606863e-04 -2.161080055916733223e-04 -2.001000051599532330e-04 -1.840920047322765402e-04 -1.680840043083199078e-04 -1.520760038877599723e-04 -1.360680034702731265e-04 -1.200600030555361156e-04 -1.040520026432250613e-04 -8.804400223301668158e-05 -7.203600182458747762e-05 -5.602800141761385573e-05 -4.002000101177258815e-05 -2.401200060674010150e-05 -8.004000202192780076e-06 8.004000202192785158e-06 2.401200060674013538e-05 4.002000101177259492e-05 5.602800141761395060e-05 7.203600182458734210e-05 8.804400223301662737e-05 1.040520026432249258e-04 1.200600030555360343e-04 1.360680034702732078e-04 1.520760038877599994e-04 1.680840043083199620e-04 1.840920047322764047e-04 2.001000051599533414e-04 2.161080055916735662e-04 2.321160060277608760e-04 2.481240064685387697e-04 2.641320069143309086e-04 2.801400073654606291e-04 2.961480078222509691e-04 3.121560082850262678e-04 3.281640087541089126e-04 3.441720092298232968e-04 3.601800097124925669e-04 3.761880102024404114e-04 3.921960106999903021e-04 4.082040112054653854e-04 4.242120117191889163e-04 4.402200122414851252e-04 4.562280127726773757e-04 4.722360133130890309e-04 4.882440138630435083e-04 5.042520144228641171e-04 5.202600149928743832e-04 5.362680155733977241e-04 5.522760161647578825e-04 5.682840167672786012e-04 5.842920173812825389e-04 6.003000180070943055e-04 6.163080186450361261e-04 6.323160192954319601e-04 6.483240199586055505e-04 6.643320206348803146e-04 6.803400213245794532e-04 6.963480220280260586e-04 7.123560227455440902e-04 7.283640234774582667e-04 7.443720242240898372e-04 7.603800249857634117e-04 7.763880257628020826e-04 7.923960265555289421e-04
-7.039396772637656866e-19 -6.897186920072957407e-19 -6.754977056289019799e-19 -6.612767181517324449e-19 -6.470557295989147619e-19 -6.328347399935594162e-19 -6.186137493588706856e-19 -6.043927577179144703e-19 -5.901717650937999074e-19 -5.759507715097417711e-19 -5.617297769888151098e-19 -5.475087815541417714e-19 -5.332877852288875157e-19 -5.190667880361640796e-19 -5.048457899991270151e-19 -4.906247911408850743e-19 -4.764037914845819646e-19 -4.621827910533548454e-19 -4.479617898703262390e-19 -4.337407879586364827e-19 -4.195197853413998172e-19 -4.052987820417633686e-19 -3.910777780828446037e-19 -3.768567734878092337e-19 -3.626357682797697181e-19 -3.484147624818369271e-19 -3.341937561171964093e-19 -3.199727492089163276e-19 -3.057517417801636932e-19 -2.915307338540669026e-19 -2.773097254537604189e-19 -2.630887166023594939e-19 -2.488677073230315242e-19 -2.346466976388657136e-19 -2.204256875730216584e-19 -2.062046771486386847e-19 -1.919836663888163241e-19 -1.777626553167288583e-19 -1.635416439554769743e-19 -1.493206323282038019e-19 -1.350996204580398801e-19 -1.208786083681180350e-19 -1.066575960815762324e-19 -9.243658362154548083e-20 -7.821557101114677381e-20 -6.399455827351952171e-20 -4.977354543179770611e-20 -3.555253250911573594e-20 -2.133151952860243192e-20 -7.110506513388754330e-21 7.110506513388682107e-21 2.133151952860207080e-20 3.555253250911468270e-20 4.977354543179960797e-20 6.399455827351676522e-20 7.821557101114359603e-20 9.243658362153704284e-20 1.066575960815757750e-19 1.208786083681204424e-19 1.350996204580380264e-19 1.493206323281947019e-19 1.635416439554725687e-19 1.777626553167314342e-19 1.919836663888353667e-19 2.062046771486388773e-19 2.204256875730275324e-19 2.346466976388669654e-19 2.488677073230186205e-19 2.630887166023576643e-19 2.773097254537578670e-19 2.915307338540626656e-19 3.057517417801662451e-19 3.199727492088985127e-19 3.341937561171898612e-19 3.484147624818488198e-19 3.626357682797746773e-19 3.768567734878118337e-19 3.910777780828472518e-19 4.052987820417643797e-19 4.195197853413989505e-19 4.337407879586309938e-19 4.479617898703272983e-19 4.621827910533716009e-19 4.764037914845940016e-19 4.906247911408990373e-19 5.048457899991273040e-19 5.190667880361588796e-19 5.332877852288885749e-19 5.475087815541279047e-19 5.617297769888062505e-19 5.759507715097299267e-19 5.901717650938129074e-19 6.043927577179219815e-19 6.186137493588676041e-19 6.328347399935757866e-19 6.470557295989155323e-19 6.612767181517307116e-19 6.754977056288986095e-19 6.897186920072869777e-19 7.039396772637654940e-19
0.000000000000000000e+00 0.000000000000000000e+00 0.000000000000000000e+00 0.000000000000000000e+00 0.000000000000000000e+00 0.000000000000000000e+00 0.000000000000000000e+00 0.000000000000000000e+00 0.000000000000000000e+00 0.000000000000000000e+00 0.000000000000000000e+00 0.000000000000000000e+00 0.000000000000000000e+00 0.000000000000000000e+00 0.000000000000000000e+00 0.000000000000000000e+00 0.000000000000000000e+00 0.000000000000000000e+00 0.000000000000000000e+00 0.000000000000000000e+00 0.000000000000000000e+00 0.000000000000000000e+00 0.000000000000000000e+00 0.000000000000000000e+00 0.000000000000000000e+00 0.000000000000000000e+00 0.000000000000000000e+00 0.000000000000000000e+00 0.000000000000000000e+00 0.000000000000000000e+00 0.000000000000000000e+00 0.000000000000000000e+00 0.000000000000000000e+00 0.000000000000000000e+00 0.000000000000000000e+00 0.000000000000000000e+00 0.000000000000000000e+00 0.000000000000000000e+00 0.000000000000000000e+00 0.000000000000000000e+00 0.000000000000000000e+00 0.000000000000000000e+00 0.000000000000000000e+00 0.000000000000000000e+00 0.000000000000000000e+00 0.000000000000000000e+00 0.000000000000000000e+00 0.000000000000000000e+00 0.000000000000000000e+00 0.000000000000000000e+00 0.000000000000000000e+00 0.000000000000000000e+00 0.000000000000000000e+00 0.000000000000000000e+00 0.000000000000000000e+00 0.000000000000000000e+00 0.000000000000000000e+00 0.000000000000000000e+00 0.000000000000000000e+00 0.000000000000000000e+00 0.000000000000000000e+00 0.000000000000000000e+00 0.000000000000000000e+00 0.000000000000000000e+00 0.000000000000000000e+00 0.000000000000000000e+00 0.000000000000000000e+00 0.000000000000000000e+00 0.000000000000000000e+00 0.000000000000000000e+00 0.000000000000000000e+00 0.000000000000000000e+00 0.000000000000000000e+00 0.000000000000000000e+00 0.000000000000000000e+00 0.000000000000000000e+00 0.000000000000000000e+00 0.000000000000000000e+00 0.000000000000000000e+00 0.000000000000000000e+00 0.000000000000000000e+00 0.000000000000000000e+00 0.000000000000000000e+00 0.000000000000000000e+00 0.000000000000000000e+00 0.000000000000000000e+00 0.000000000000000000e+00 0.000000000000000000e+00 0.000000000000000000e+00 0.000000000000000000e+00 0.000000000000000000e+00 0.000000000000000000e+00 0.000000000000000000e+00 0.000000000000000000e+00 0.000000000000000000e+00 0.000000000000000000e+00 0.000000000000000000e+00 0.000000000000000000e+00 0.000000000000000000e+00 0.000000000000000000e+00
-3.301651765428756900e-03 -3.234951712726855631e-03 -3.168251661068009761e-03 -3.101551610430710888e-03 -3.034851560793460582e-03 -2.968151512134750442e-03 -2.901451464433080305e-03 -2.834751417666941335e-03 -2.768051371814819056e-03 -2.701351326855218511e-03 -2.634651282766627828e-03 -2.567951239527539471e-03 -2.501251197116449807e-03 -2.434551155511846966e-03 -2.367851114692234686e-03 -2.301151074636098928e-03 -2.234451035321937794e-03 -2.167750996728244617e-03 -2.101050958833509258e-03 -2.034350921616227218e-03 -1.967650885054890528e-03 -1.900950849127995123e-03 -1.834250813814033900e-03 -1.767550779091500626e-03 -1.700850744938889499e-03 -1.634150711334692550e-03 -1.567450678257403113e-03 -1.500750645685517337e-03 -1.434050613597527687e-03 -1.367350581971927713e-03 -1.300650550787209011e-03 -1.233950520021866648e-03 -1.167250489654395908e-03 -1.100550459663285135e-03 -1.033850430027033517e-03 -9.671504007241328669e-04 -9.004503717330769510e-04 -8.337503430323583422e-04 -7.670503146004714569e-04 -7.003502864159075669e-04 -6.336502584571635822e-04 -5.669502307027304497e-04 -5.002502031311036696e-04 -4.335501757207745142e-04 -3.668501484502378332e-04 -3.001501212979867960e-04 -2.334500942425143011e-04 -1.667500672623147917e-04 -1.000500403358828196e-04 -3.335001344170979918e-05 3.335001344170979241e-05 1.000500403358830500e-04 1.667500672623151712e-04 2.334500942425144095e-04 3.001501212979861997e-04 3.668501484502372911e-04 4.335501757207741889e-04 5.002502031311035612e-04 5.669502307027312086e-04 6.336502584571641243e-04 7.003502864159084343e-04 7.670503146004699390e-04 8.337503430323582338e-04 9.004503717330760836e-04 9.671504007241334090e-04 1.033850430027033951e-03 1.100550459663287737e-03 1.167250489654397642e-03 1.233950520021866648e-03 1.300650550787210312e-03 1.367350581971927062e-03 1.434050613597526820e-03 1.500750645685516903e-03 1.567450678257402462e-03 1.634150711334692333e-03 1.700850744938888631e-03 1.767550779091498457e-03 1.834250813814030864e-03 1.900950849127993388e-03 1.967650885054890095e-03 2.034350921616227652e-03 2.101050958833509258e-03 2.167750996728245484e-03 2.234451035321939096e-03 2.301151074636098928e-03 2.367851114692235987e-03 2.434551155511849134e-03 2.501251197116449807e-03 2.567951239527538603e-03 2.634651282766625659e-03 2.701351326855219379e-03 2.768051371814822526e-03 2.834751417666940901e-03 2.901451464433079438e-03 2.968151512134750876e-03 3.034851560793463184e-03 3.101551610430711755e-03 3.168251661068008894e-03 3.234951712726855198e-03 3.301651765428757334e-03
-3.914108250340380436e-18 -3.835035444494547636e-18 -3.755962633254768233e-18 -3.676889816732330164e-18 -3.597816995038427379e-18 -3.518744168284167546e-18 -3.439671336581131729e-18 -3.360598500040202646e-18 -3.281525658772456768e-18 -3.202452812889564520e-18 -3.123379962502399377e-18 -3.044307107722152594e-18 -2.965234248660209558e-18 -2.886161385427694888e-18 -2.807088518135893821e-18 -2.728015646895949080e-18 -2.648942771819100452e-18 -2.569869893016627013e-18 -2.490797010599637588e-18 -2.411724124679454394e-18 -2.332651235367141574e-18 -2.253578342774014798e-18 -2.174505447011204845e-18 -2.095432548190116748e-18 -2.016359646421840843e-18 -1.937286741817485568e-18 -1.858213834488564194e-18 -1.779140924545926314e-18 -1.700068012100989095e-18 -1.620995097264927805e-18 -1.541922180148988010e-18 -1.462849260864272949e-18 -1.383776339522215196e-18 -1.304703416233767766e-18 -1.225630491110301989e-18 -1.146557564263081149e-18 -1.067484635803131255e-18 -9.884117058418931623e-19 -9.093387744904254278e-19 -8.302658418599786247e-19 -7.511929080617779998e-19 -6.721199732070293483e-19 -5.930470374069685095e-19 -5.139741007728323823e-19 -4.349011634157518430e-19 -3.558282254469862755e-19 -2.767552869777628527e-19 -1.976823481192989734e-19 -1.186094089827989639e-19 -3.953646967946389467e-20 3.953646967946358171e-20 1.186094089827964842e-19 1.976823481192950734e-19 2.767552869777719528e-19 3.558282254469716866e-19 4.349011634157318133e-19 5.139741007727882785e-19 5.930470374069720725e-19 6.721199732070394594e-19 7.511929080617645183e-19 8.302658418599269134e-19 9.093387744903992351e-19 9.884117058419110734e-19 1.067484635803234100e-18 1.146557564263083075e-18 1.225630491110337427e-18 1.304703416233775855e-18 1.383776339522142588e-18 1.462849260864262549e-18 1.541922180148974143e-18 1.620995097264905464e-18 1.700068012101000073e-18 1.779140924545827707e-18 1.858213834488530683e-18 1.937286741817557983e-18 2.016359646421867421e-18 2.095432548190125993e-18 2.174505447011219482e-18 2.253578342774018265e-18 2.332651235367133485e-18 2.411724124679420883e-18 2.490797010599649143e-18 2.569869893016709828e-18 2.648942771819164778e-18 2.728015646896021110e-18 2.807088518135903836e-18 2.886161385427655213e-18 2.965234248660233440e-18 3.044307107722080564e-18 3.123379962502351614e-18 3.202452812889490564e-18 3.281525658772528028e-18 3.360598500040245402e-18 3.439671336581119403e-18 3.518744168284250746e-18 3.597816995038428920e-18 3.676889816732324001e-18 3.755962633254744352e-18 3.835035444494502954e-18 3.914108250340383517e-18
0.000000000000000000e+00 0.000000000000000000e+00 0.000000000000000000e+00 0.000000000000000000e+00 0.000000000000000000e+00 0.000000000000000000e+00 0.000000000000000000e+00 0.000000000000000000e+00 0.000000000000000000e+00 0.000000000000000000e+00 0.000000000000000000e+00 0.000000000000000000e+00 0.000000000000000000e+00 0.000000000000000000e+00 0.000000000000000000e+00 0.000000000000000000e+00 0.000000000000000000e+00 0.000000000000000000e+00 0.000000000000000000e+00 0.000000000000000000e+00 0.000000000000000000e+00 0.000000000000000000e+00 0.000000000000000000e+00 0.000000000000000000e+00 0.000000000000000000e+00 0.000000000000000000e+00 0.000000000000000000e+00 0.000000000000000000e+00 0.000000000000000000e+00 0.000000000000000000e+00 0.000000000000000000e+00 0.000000000000000000e+00 0.000000000000000000e+00 0.000000000000000000e+00 0.000000000000000000e+00 0.000000000000000000e+00 0.000000000000000000e+00 0.000000000000000000e+00 0.000000000000000000e+00 0.000000000000000000e+00 0.000000000000000000e+00 0.000000000000000000e+00 0.000000000000000000e+00 0.000000000000000000e+00 0.000000000000000000e+00 0.000000000000000000e+00 0.000000000000000000e+00 0.000000000000000000e+00 0.000000000000000000e+00 0.000000000000000000e+00 0.000000000000000000e+00 0.000000000000000000e+00 0.000000000000000000e+00 0.000000000000000000e+00 0.000000000000000000e+00 0.000000000000000000e+00 0.000000000000000000e+00 0.000000000000000000e+00 0.000000000000000000e+00 0.000000000000000000e+00 0.000000000000000000e+00 0.000000000000000000e+00 0.000000000000000000e+00 0.000000000000000000e+00 0.000000000000000000e+00 0.000000000000000000e+00 0.000000000000000000e+00 0.000000000000000000e+00 0.000000000000000000e+00 0.000000000000000000e+00 0.000000000000000000e+00 0.000000000000000000e+00 0.000000000000000000e+00 0.000000000000000000e+00 0.000000000000000000e+00 0.000000000000000000e+00 0.000000000000000000e+00 0.000000000000000000e+00 0.000000000000000000e+00 0.000000000000000000e+00 0.000000000000000000e+00 0.000000000000000000e+00 0.000000000000000000e+00 0.000000000000000000e+00 0.000000000000000000e+00 0.000000000000000000e+00 0.000000000000000000e+00 0.000000000000000000e+00 0.000000000000000000e+00 0.000000000000000000e+00 0.000000000000000000e+00 0.000000000000000000e+00 0.000000000000000000e+00 0.000000000000000000e+00 0.000000000000000000e+00 0.000000000000000000e+00 0.000000000000000000e+00 0.000000000000000000e+00 0.000000000000000000e+00 0.000000000000000000e+00
