# 
#                 ----------------------------------------------------
#                 Data from a 3D direct N-body simulation. 
# 
#                 rows are i-particle; 
#                 coumns are :mass, tag, x ,y, z, vx, vy, vz, ax, ay, az
# 
#                 NTHU, Computational Physics Lab
# 
#                 ----------------------------------------------------
#                 Time = 0.30000000000000004
1.000000000000000000e+00 2.000000000000000000e+00 3.000000000000000000e+00 4.000000000000000000e+00 5.000000000000000000e+00 6.000000000000000000e+00 7.000000000000000000e+00 8.000000000000000000e+00 9.000000000000000000e+00 1.000000000000000000e+01 1.100000000000000000e+01 1.200000000000000000e+01 1.300000000000000000e+01 1.400000000000000000e+01 1.500000000000000000e+01 1.600000000000000000e+01 1.700000000000000000e+01 1.800000000000000000e+01 1.900000000000000000e+01 2.000000000000000000e+01 2.100000000000000000e+01 2.200000000000000000e+01 2.300000000000000000e+01 2.400000000000000000e+01 2.500000000000000000e+01 2.600000000000000000e+01 2.700000000000000000e+01 2.800000000000000000e+01 2.900000000000000000e+01 3.000000000000000000e+01 3.100000000000000000e+01 3.200000000000000000e+01 3.300000000000000000e+01 3.400000000000000000e+01 3.500000000000000000e+01 3.600000000000000000e+01 3.700000000000000000e+01 3.800000000000000000e+01 3.900000000000000000e+01 4.000000000000000000e+01 4.100000000000000000e+01 4.200000000000000000e+01 4.300000000000000000e+01 4.400000000000000000e+01 4.500000000000000000e+01 4.600000000000000000e+01 4.700000000000000000e+01 4.800000000000000000e+01 4.900000000000000000e+01 5.000000000000000000e+01 5.100000000000000000e+01 5.200000000000000000e+01 5.300000000000000000e+01 5.400000000000000000e+01 5.500000000000000000e+01 5.600000000000000000e+01 5.700000000000000000e+01 5.800000000000000000e+01 5.900000000000000000e+01 6.000000000000000000e+01 6.100000000000000000e+01 6.200000000000000000e+01 6.300000000000000000e+01 6.400000000000000000e+01 6.500000000000000000e+01 6.600000000000000000e+01 6.700000000000000000e+01 6.800000000000000000e+01 6.900000000000000000e+01 7.000000000000000000e+01 7.100000000000000000e+01 7.200000000000000000e+01 7.300000000000000000e+01 7.400000000000000000e+01 7.500000000000000000e+01 7.600000000000000000e+01 7.700000000000000000e+01 7.800000000000000000e+01 7.900000000000000000e+01 8.000000000000000000e+01 8.100000000000000000e+01 8.200000000000000000e+01 8.300000000000000000e+01 8.400000000000000000e+01 8.500000000000000000e+01 8.600000000000000000e+01 8.700000000000000000e+01 8.800000000000000000e+01 8.900000000000000000e+01 9.000000000000000000e+01 9.100000000000000000e+01 9.200000000000000000e+01 9.300000000000000000e+01 9.400000000000000000e+01 9.500000000000000000e+01 9.600000000000000000e+01 9.700000000000000000e+01 9.800000000000000000e+01 9.900000000000000000e+01 1.000000000000000000e+02
1.000000000000000000e+00 1.000000000000000000e+00 1.000000000000000000e+00 1.000000000000000000e+00 1.000000000000000000e+00 1.000000000000000000e+00 1.000000000000000000e+00 1.000000000000000000e+00 1.000000000000000000e+00 1.000000000000000000e+00 1.000000000000000000e+00 1.000000000000000000e+00 1.000000000000000000e+00 1.000000000000000000e+00 1.000000000000000000e+00 1.000000000000000000e+00 1.000000000000000000e+00 1.000000000000000000e+00 1.000000000000000000e+00 1.000000000000000000e+00 1.000000000000000000e+00 1.000000000000000000e+00 1.000000000000000000e+00 1.000000000000000000e+00 1.000000000000000000e+00 1.000000000000000000e+00 1.000000000000000000e+00 1.000000000000000000e+00 1.000000000000000000e+00 1.000000000000000000e+00 1.000000000000000000e+00 1.000000000000000000e+00 1.000000000000000000e+00 1.000000000000000000e+00 1.000000000000000000e+00 1.000000000000000000e+00 1.000000000000000000e+00 1.000000000000000000e+00 1.000000000000000000e+00 1.000000000000000000e+00 1.000000000000000000e+00 1.000000000000000000e+00 1.000000000000000000e+00 1.000000000000000000e+00 1.000000000000000000e+00 1.000000000000000000e+00 1.000000000000000000e+00 1.000000000000000000e+00 1.000000000000000000e+00 1.000000000000000000e+00 1.000000000000000000e+00 1.000000000000000000e+00 1.000000000000000000e+00 1.000000000000000000e+00 1.000000000000000000e+00 1.000000000000000000e+00 1.000000000000000000e+00 1.000000000000000000e+00 1.000000000000000000e+00 1.000000000000000000e+00 1.000000000000000000e+00 1.000000000000000000e+00 1.000000000000000000e+00 1.000000000000000000e+00 1.000000000000000000e+00 1.000000000000000000e+00 1.000000000000000000e+00 1.000000000000000000e+00 1.000000000000000000e+00 1.000000000000000000e+00 1.000000000000000000e+00 1.000000000000000000e+00 1.000000000000000000e+00 1.000000000000000000e+00 1.000000000000000000e+00 1.000000000000000000e+00 1.000000000000000000e+00 1.000000000000000000e+00 1.000000000000000000e+00 1.000000000000000000e+00 1.000000000000000000e+00 1.000000000000000000e+00 1.000000000000000000e+00 1.000000000000000000e+00 1.000000000000000000e+00 1.000000000000000000e+00 1.000000000000000000e+00 1.000000000000000000e+00 1.000000000000000000e+00 1.000000000000000000e+00 1.000000000000000000e+00 1.000000000000000000e+00 1.000000000000000000e+00 1.000000000000000000e+00 1.000000000000000000e+00 1.000000000000000000e+00 1.000000000000000000e+00 1.000000000000000000e+00 1.000000000000000000e+00 1.000000000000000000e+00
9.904957524315566048e-06 9.704857299697602186e-06 9.504757079525283971e-06 9.304656863706891289e-06 9.104556652150768396e-06 8.904456444765317151e-06 8.704356241458692078e-06 8.504256042139417005e-06 8.304155846715846357e-06 8.104055655096168537e-06 7.903955467188795569e-06 7.703855282902136083e-06 7.503755102144424227e-06 7.303654924824126230e-06 7.103554750849364429e-06 6.903454580128667737e-06 6.703354412570285543e-06 6.503254248082597684e-06 6.303154086573870490e-06 6.103053927952560028e-06 5.902953772126915690e-06 5.702853619005310534e-06 5.502753468496078654e-06 5.302653320507530428e-06 5.102553174948008420e-06 4.902453031725895853e-06 4.702352890749467528e-06 4.502252751927135469e-06 4.302152615167208357e-06 4.102052480377996570e-06 3.901952347467872320e-06 3.701852216345151913e-06 3.501752086918185537e-06 3.301651959095329310e-06 3.101551832784880056e-06 2.901451707895189658e-06 2.701351584334624397e-06 2.501251462011452299e-06 2.301151340834096398e-06 2.101051220710831494e-06 1.900951101550039541e-06 1.700850983260027103e-06 1.500750865749111336e-06 1.300650748925684777e-06 1.100550632698065429e-06 9.004505169745914095e-07 7.003504016636012591e-07 5.002502866734121320e-07 3.001501719123870276e-07 1.000500572888512524e-07 -1.000500572888517818e-07 -3.001501719123860747e-07 -5.002502866734182729e-07 -7.003504016635959651e-07 -9.004505169745979740e-07 -1.100550632698068817e-06 -1.300650748925706800e-06 -1.500750865749126159e-06 -1.700850983260016939e-06 -1.900951101550036576e-06 -2.101051220710845894e-06 -2.301151340834098092e-06 -2.501251462011450605e-06 -2.701351584334583739e-06 -2.901451707895185423e-06 -3.101551832784874974e-06 -3.301651959095329310e-06 -3.501752086918208407e-06 -3.701852216345155301e-06 -3.901952347467868932e-06 -4.102052480378008429e-06 -4.302152615167204969e-06 -4.502252751927167656e-06 -4.702352890749484469e-06 -4.902453031725883994e-06 -5.102553174947994867e-06 -5.302653320507518569e-06 -5.502753468496075266e-06 -5.702853619005295287e-06 -5.902953772126907220e-06 -6.103053927952551558e-06 -6.303154086573868796e-06 -6.503254248082541780e-06 -6.703354412570248274e-06 -6.903454580128625385e-06 -7.103554750849369511e-06 -7.303654924824107595e-06 -7.503755102144468272e-06 -7.703855282902166577e-06 -7.903955467188815897e-06 -8.104055655096171926e-06 -8.304155846715809087e-06 -8.504256042139389900e-06 -8.704356241458698854e-06 -8.904456444765269718e-06 -9.104556652150748067e-06 -9.304656863706884512e-06 -9.504757079525273807e-06 -9.704857299697629291e-06 -9.904957524315566048e-06
1.496230362086862788e-20 1.466003483927746343e-20 1.435776605900719802e-20 1.405549728003050153e-20 1.375322850232016716e-20 1.345095972584901524e-20 1.314869095058961030e-20 1.284642217651496824e-20 1.254415340359779504e-20 1.224188463181078611e-20 1.193961586112665344e-20 1.163734709151834674e-20 1.133507832295848471e-20 1.103280955542007273e-20 1.073054078887541652e-20 1.042827202329769000e-20 1.012600325865946219e-20 9.823734494933654225e-21 9.521465732092773455e-21 9.219196970109945633e-21 8.916928208957641997e-21 8.614659448608744551e-21 8.312390689036001387e-21 8.010121930212195202e-21 7.707853172110039481e-21 7.405584414702350024e-21 7.103315657961906520e-21 6.801046901861452545e-21 6.498778146373792615e-21 6.196509391471597333e-21 5.894240637127735912e-21 5.591971883314872937e-21 5.289703130005917495e-21 4.987434377173527399e-21 4.685165624790468797e-21 4.382896872829559744e-21 4.080628121263544571e-21 3.778359370065133000e-21 3.476090619207217568e-21 3.173821868662425995e-21 2.871553118403640286e-21 2.569284368403546088e-21 2.267015618634863282e-21 1.964746869070516376e-21 1.662478119683169580e-21 1.360209370445614994e-21 1.057940621330626853e-21 7.556718723109238139e-22 4.534031233593282593e-22 1.511343744485671685e-22 -1.511343744485658285e-22 -4.534031233593218646e-22 -7.556718723109340642e-22 -1.057940621330615568e-21 -1.360209370445614806e-21 -1.662478119683158859e-21 -1.964746869070539322e-21 -2.267015618634897136e-21 -2.569284368403518252e-21 -2.871553118403619221e-21 -3.173821868662427124e-21 -3.476090619207204779e-21 -3.778359370065145037e-21 -4.080628121263510716e-21 -4.382896872829560496e-21 -4.685165624790480834e-21 -4.987434377173532666e-21 -5.289703130005925771e-21 -5.591971883314872185e-21 -5.894240637127719361e-21 -6.196509391471613131e-21 -6.498778146373782835e-21 -6.801046901861467591e-21 -7.103315657961930594e-21 -7.405584414702375603e-21 -7.707853172110028949e-21 -8.010121930212171128e-21 -8.312390689036001387e-21 -8.614659448608720477e-21 -8.916928208957619427e-21 -9.219196970109920054e-21 -9.521465732092797529e-21 -9.823734494933580498e-21 -1.012600325865943210e-20 -1.042827202329765088e-20 -1.073054078887545715e-20 -1.103280955542001555e-20 -1.133507832295861110e-20 -1.163734709151839188e-20 -1.193961586112667601e-20 -1.224188463181075602e-20 -1.254415340359776795e-20 -1.284642217651494868e-20 -1.314869095058964190e-20 -1.345095972584896108e-20 -1.375322850232013105e-20 -1.405549728003050755e-20 -1.435776605900716492e-20 -1.466003483927749352e-20 -1.496230362086863691e-20
0.000000000000000000e+00 0.000000000000000000e+00 0.000000000000000000e+00 0.000000000000000000e+00 0.000000000000000000e+00 0.000000000000000000e+00 0.000000000000000000e+00 0.000000000000000000e+00 0.000000000000000000e+00 0.000000000000000000e+00 0.000000000000000000e+00 0.000000000000000000e+00 0.000000000000000000e+00 0.000000000000000000e+00 0.000000000000000000e+00 0.000000000000000000e+00 0.000000000000000000e+00 0.000000000000000000e+00 0.000000000000000000e+00 0.000000000000000000e+00 0.000000000000000000e+00 0.000000000000000000e+00 0.000000000000000000e+00 0.000000000000000000e+00 0.000000000000000000e+00 0.000000000000000000e+00 0.000000000000000000e+00 0.000000000000000000e+00 0.000000000000000000e+00 0.000000000000000000e+00 0.000000000000000000e+00 0.000000000000000000e+00 0.000000000000000000e+00 0.000000000000000000e+00 0.000000000000000000e+00 0.000000000000000000e+00 0.000000000000000000e+00 0.000000000000000000e+00 0.000000000000000000e+00 0.000000000000000000e+00 0.000000000000000000e+00 0.000000000000000000e+00 0.000000000000000000e+00 0.000000000000000000e+00 0.000000000000000000e+00 0.000000000000000000e+00 0.000000000000000000e+00 0.000000000000000000e+00 0.000000000000000000e+00 0.000000000000000000e+00 0.000000000000000000e+00 0.000000000000000000e+00 0.000000000000000000e+00 0.000000000000000000e+00 0.000000000000000000e+00 0.000000000000000000e+00 0.000000000000000000e+00 0.000000000000000000e+00 0.000000000000000000e+00 0.000000000000000000e+00 0.000000000000000000e+00 0.000000000000000000e+00 0.000000000000000000e+00 0.000000000000000000e+00 0.000000000000000000e+00 0.000000000000000000e+00 0.000000000000000000e+00 0.000000000000000000e+00 0.000000000000000000e+00 0.000000000000000000e+00 0.000000000000000000e+00 0.000000000000000000e+00 0.000000000000000000e+00 0.000000000000000000e+00 0.000000000000000000e+00 0.000000000000000000e+00 0.000000000000000000e+00 0.000000000000000000e+00 0.000000000000000000e+00 0.000000000000000000e+00 0.000000000000000000e+00 0.000000000000000000e+00 0.000000000000000000e+00 0.000000000000000000e+00 0.000000000000000000e+00 0.000000000000000000e+00 0.000000000000000000e+00 0.000000000000000000e+00 0.000000000000000000e+00 0.000000000000000000e+00 0.000000000000000000e+00 0.000000000000000000e+00 0.000000000000000000e+00 0.000000000000000000e+00 0.000000000000000000e+00 0.000000000000000000e+00 0.000000000000000000e+00 0.000000000000000000e+00 0.000000000000000000e+00 0.000000000000000000e+00
-3.961979008113182673e-04 -3.881939037723268352e-04 -3.801899066747313483e-04 -3.721859095197402583e-04 -3.641819123085621797e-04 -3.561779150424046968e-04 -3.481739177224777251e-04 -3.401699203499880899e-04 -3.321659229261440804e-04 -3.241619254521549615e-04 -3.161579279292285344e-04 -3.081539303585728714e-04 -3.001499327413968037e-04 -2.921459350789079156e-04 -2.841419373723157974e-04 -2.761379396228277080e-04 -2.681339418316524247e-04 -2.601299439999981821e-04 -2.521259461290735406e-04 -2.441219482200861657e-04 -2.361179502742450514e-04 -2.281139522927581886e-04 -2.201099542768338393e-04 -2.121059562276808347e-04 -2.041019581465071658e-04 -1.960979600345208506e-04 -1.880939618929307745e-04 -1.800899637229447930e-04 -1.720859655257714121e-04 -1.640819673026190834e-04 -1.560779690546959606e-04 -1.480739707832103870e-04 -1.400699724893708414e-04 -1.320659741743852877e-04 -1.240619758394625029e-04 -1.160579774858106134e-04 -1.080539791146379355e-04 -1.000499807271530158e-04 -9.204598232456379103e-05 -8.404198390807891622e-05 -7.603798547890650429e-05 -6.803398703825499344e-05 -6.002998858733282864e-05 -5.202599012734809570e-05 -4.402199165950921927e-05 -3.601799318502452911e-05 -2.801399470510231772e-05 -2.000999622095108428e-05 -1.200599773377897559e-05 -4.001999244794378183e-06 4.001999244794383265e-06 1.200599773377898745e-05 2.000999622095106056e-05 2.801399470510240242e-05 3.601799318502447490e-05 4.402199165950920572e-05 5.202599012734798728e-05 6.002998858733276765e-05 6.803398703825503410e-05 7.603798547890647718e-05 8.404198390807884845e-05 9.204598232456376393e-05 1.000499807271530565e-04 1.080539791146381388e-04 1.160579774858107218e-04 1.240619758394625842e-04 1.320659741743853148e-04 1.400699724893707059e-04 1.480739707832103599e-04 1.560779690546959606e-04 1.640819673026189750e-04 1.720859655257714121e-04 1.800899637229446304e-04 1.880939618929307203e-04 1.960979600345210132e-04 2.041019581465073013e-04 2.121059562276809160e-04 2.201099542768339477e-04 2.281139522927582157e-04 2.361179502742450785e-04 2.441219482200863013e-04 2.521259461290734864e-04 2.601299439999983990e-04 2.681339418316525331e-04 2.761379396228278707e-04 2.841419373723157431e-04 2.921459350789080240e-04 3.001499327413966953e-04 3.081539303585727630e-04 3.161579279292283718e-04 3.241619254521547989e-04 3.321659229261442431e-04 3.401699203499880899e-04 3.481739177224776709e-04 3.561779150424049679e-04 3.641819123085622339e-04 3.721859095197402583e-04 3.801899066747311314e-04 3.881939037723267268e-04 3.961979008113182673e-04
-2.457931077721801851e-19 -2.408275994625850312e-19 -2.358620906007936955e-19 -2.308965811981997870e-19 -2.259310712661859367e-19 -2.209655608161269760e-19 -2.160000498594433082e-19 -2.110345384074871106e-19 -2.060690264716348998e-19 -2.011035140633083790e-19 -1.961380011938701499e-19 -1.911724878746975471e-19 -1.862069741171921965e-19 -1.812414599327282550e-19 -1.762759453327072039e-19 -1.713104303284979760e-19 -1.663449149314949268e-19 -1.613793991530819632e-19 -1.564138830046452794e-19 -1.514483664975675548e-19 -1.464828496432311555e-19 -1.415173324530262000e-19 -1.365518149383318525e-19 -1.315862971105476685e-19 -1.266207789810517772e-19 -1.216552605612187208e-19 -1.166897418624575398e-19 -1.117242228961256839e-19 -1.067587036736231898e-19 -1.017931842063354812e-19 -9.682766450564692267e-20 -9.186214458293741293e-20 -8.689662444960524336e-20 -8.193110411701907008e-20 -7.696558359657592057e-20 -7.200006289966334916e-20 -6.703454203765292494e-20 -6.206902102194941522e-20 -5.710349986392221039e-20 -5.213797857496387821e-20 -4.717245716645711002e-20 -4.220693564978872587e-20 -3.724141403634768841e-20 -3.227589233751591862e-20 -2.731037056467584904e-20 -2.234484872921546732e-20 -1.737932684252082616e-20 -1.241380491597900891e-20 -7.448282960973018386e-21 -2.482760988888283602e-21 2.482760988888247491e-21 7.448282960972916071e-21 1.241380491597836794e-20 1.737932684252184028e-20 2.234484872921423653e-20 2.731037056467468145e-20 3.227589233751190426e-20 3.724141403634691804e-20 4.220693564979011615e-20 4.717245716645658641e-20 5.213797857495993006e-20 5.710349986392040484e-20 6.206902102195016152e-20 6.703454203766169996e-20 7.200006289966333712e-20 7.696558359657821965e-20 8.193110411701947934e-20 8.689662444959963409e-20 9.186214458293671478e-20 9.682766450564598378e-20 1.017931842063335312e-19 1.067587036736246944e-19 1.117242228961177876e-19 1.166897418624543620e-19 1.216552605612234152e-19 1.266207789810541123e-19 1.315862971105493537e-19 1.365518149383330322e-19 1.415173324530268981e-19 1.464828496432310592e-19 1.514483664975654122e-19 1.564138830046452313e-19 1.613793991530903892e-19 1.663449149315005120e-19 1.713104303285046686e-19 1.762759453327064816e-19 1.812414599327270513e-19 1.862069741171908965e-19 1.911724878746909027e-19 1.961380011938660091e-19 2.011035140633036364e-19 2.060690264716407016e-19 2.110345384074903847e-19 2.160000498594414304e-19 2.209655608161350167e-19 2.259310712661866590e-19 2.308965811981987277e-19 2.358620906007926844e-19 2.408275994625807942e-19 2.457931077721796555e-19
0.000000000000000000e+00 0.000000000000000000e+00 0.000000000000000000e+00 0.000000000000000000e+00 0.000000000000000000e+00 0.000000000000000000e+00 0.000000000000000000e+00 0.000000000000000000e+00 0.000000000000000000e+00 0.000000000000000000e+00 0.000000000000000000e+00 0.000000000000000000e+00 0.000000000000000000e+00 0.000000000000000000e+00 0.000000000000000000e+00 0.000000000000000000e+00 0.000000000000000000e+00 0.000000000000000000e+00 0.000000000000000000e+00 0.000000000000000000e+00 0.000000000000000000e+00 0.000000000000000000e+00 0.000000000000000000e+00 0.000000000000000000e+00 0.000000000000000000e+00 0.000000000000000000e+00 0.000000000000000000e+00 0.000000000000000000e+00 0.000000000000000000e+00 0.000000000000000000e+00 0.000000000000000000e+00 0.000000000000000000e+00 0.000000000000000000e+00 0.000000000000000000e+00 0.000000000000000000e+00 0.000000000000000000e+00 0.000000000000000000e+00 0.000000000000000000e+00 0.000000000000000000e+00 0.000000000000000000e+00 0.000000000000000000e+00 0.000000000000000000e+00 0.000000000000000000e+00 0.000000000000000000e+00 0.000000000000000000e+00 0.000000000000000000e+00 0.000000000000000000e+00 0.000000000000000000e+00 0.000000000000000000e+00 0.000000000000000000e+00 0.000000000000000000e+00 0.000000000000000000e+00 0.000000000000000000e+00 0.000000000000000000e+00 0.000000000000000000e+00 0.000000000000000000e+00 0.000000000000000000e+00 0.000000000000000000e+00 0.000000000000000000e+00 0.000000000000000000e+00 0.000000000000000000e+00 0.000000000000000000e+00 0.000000000000000000e+00 0.000000000000000000e+00 0.000000000000000000e+00 0.000000000000000000e+00 0.000000000000000000e+00 0.000000000000000000e+00 0.000000000000000000e+00 0.000000000000000000e+00 0.000000000000000000e+00 0.000000000000000000e+00 0.000000000000000000e+00 0.000000000000000000e+00 0.000000000000000000e+00 0.000000000000000000e+00 0.000000000000000000e+00 0.000000000000000000e+00 0.000000000000000000e+00 0.000000000000000000e+00 0.000000000000000000e+00 0.000000000000000000e+00 0.000000000000000000e+00 0.000000000000000000e+00 0.000000000000000000e+00 0.000000000000000000e+00 0.000000000000000000e+00 0.000000000000000000e+00 0.000000000000000000e+00 0.000000000000000000e+00 0.000000000000000000e+00 0.000000000000000000e+00 0.000000000000000000e+00 0.000000000000000000e+00 0.000000000000000000e+00 0.000000000000000000e+00 0.000000000000000000e+00 0.000000000000000000e+00 0.000000000000000000e+00 0.000000000000000000e+00
-5.282639319958769980e-03 -5.175919340259555086e-03 -5.069199360158548745e-03 -4.962479379664035996e-03 -4.855759398784302745e-03 -4.749039417527629696e-03 -4.642319435902307959e-03 -4.535599453916616501e-03 -4.428879471578836026e-03 -4.322159488897260246e-03 -4.215439505880165527e-03 -4.108719522535840378e-03 -4.001999538872568971e-03 -3.895279554898632875e-03 -3.788559570622321033e-03 -3.681839586051912847e-03 -3.575119601195695957e-03 -3.468399616061954537e-03 -3.361679630658972323e-03 -3.254959644995032188e-03 -3.148239659078420037e-03 -3.041519672917420043e-03 -2.934799686520315077e-03 -2.828079699895392346e-03 -2.721359713050935589e-03 -2.614639725995225941e-03 -2.507919738736551045e-03 -2.401199751283193771e-03 -2.294479763643439158e-03 -2.187759775825570945e-03 -2.081039787837872437e-03 -1.974319799688629973e-03 -1.867599811386128376e-03 -1.760879822938648566e-03 -1.654159834354478184e-03 -1.547439845641900751e-03 -1.440719856809200439e-03 -1.333999867864662072e-03 -1.227279878816568736e-03 -1.120559889673205687e-03 -1.013839900442856882e-03 -9.071199111338069249e-04 -8.003999217543402052e-04 -6.936799323127405695e-04 -5.869599428172926235e-04 -4.802399532762810811e-04 -3.735199636979895724e-04 -2.667999740907035159e-04 -1.600799844627065146e-04 -5.335999482228288946e-05 5.335999482228294367e-05 1.600799844627067044e-04 2.667999740907035159e-04 3.735199636979901145e-04 4.802399532762808643e-04 5.869599428172926235e-04 6.936799323127404611e-04 8.003999217543399883e-04 9.071199111338068164e-04 1.013839900442856665e-03 1.120559889673205687e-03 1.227279878816568736e-03 1.333999867864662289e-03 1.440719856809201090e-03 1.547439845641901401e-03 1.654159834354479051e-03 1.760879822938648566e-03 1.867599811386127942e-03 1.974319799688630840e-03 2.081039787837874171e-03 2.187759775825570945e-03 2.294479763643438724e-03 2.401199751283193337e-03 2.507919738736550611e-03 2.614639725995226809e-03 2.721359713050936022e-03 2.828079699895393213e-03 2.934799686520315511e-03 3.041519672917419610e-03 3.148239659078420037e-03 3.254959644995032621e-03 3.361679630658972323e-03 3.468399616061955404e-03 3.575119601195695957e-03 3.681839586051913714e-03 3.788559570622321033e-03 3.895279554898632875e-03 4.001999538872568103e-03 4.108719522535840378e-03 4.215439505880163792e-03 4.322159488897258511e-03 4.428879471578838628e-03 4.535599453916615634e-03 4.642319435902307091e-03 4.749039417527630563e-03 4.855759398784303613e-03 4.962479379664035996e-03 5.069199360158547010e-03 5.175919340259555086e-03 5.282639319958770847e-03
-4.251335690000516572e-18 -4.165450220750334097e-18 -4.079564745362674343e-18 -3.993679263964164121e-18 -3.907793776681321621e-18 -3.821908283640583374e-18 -3.736022784968853527e-18 -3.650137280792346741e-18 -3.564251771237492615e-18 -3.478366256431243058e-18 -3.392480736499862037e-18 -3.306595211569848868e-18 -3.220709681767901237e-18 -3.134824147220474164e-18 -3.048938608054221424e-18 -2.963053064395573385e-18 -2.877167516371132977e-18 -2.791281964107470391e-18 -2.705396407731076468e-18 -2.619510847368542584e-18 -2.533625283146319905e-18 -2.447739715191029082e-18 -2.361854143629141312e-18 -2.275968568587370458e-18 -2.190082990192158059e-18 -2.104197408569945654e-18 -2.018311823847544942e-18 -1.932426236151177907e-18 -1.846540645607566116e-18 -1.760655052343232382e-18 -1.674769456484733027e-18 -1.588883858158530006e-18 -1.502998257491343536e-18 -1.417112654609504417e-18 -1.331227049639691266e-18 -1.245341442708485446e-18 -1.159455833942268981e-18 -1.073570223467796953e-18 -9.876846114114569721e-19 -9.017989978998473474e-19 -8.159133830595056243e-19 -7.300277670169779188e-19 -6.441421498988378876e-19 -5.582565318316262539e-19 -4.723709129418306816e-19 -3.864852933560320497e-19 -3.005996732007840815e-19 -2.147140526026416559e-19 -1.288284316881337961e-19 -4.294281058379819208e-20 4.294281058379778884e-20 1.288284316881318942e-19 2.147140526026366966e-19 3.005996732007931815e-19 3.864852933560180386e-19 4.723709129418146964e-19 5.582565318315845575e-19 6.441421498988355765e-19 7.300277670169888003e-19 8.159133830594959947e-19 9.017989978998013177e-19 9.876846114114346313e-19 1.073570223467810435e-18 1.159455833942363545e-18 1.245341442708486794e-18 1.331227049639720155e-18 1.417112654609510580e-18 1.502998257491278825e-18 1.588883858158520761e-18 1.674769456484720316e-18 1.760655052343210426e-18 1.846540645607578442e-18 1.932426236151089699e-18 2.018311823847512201e-18 2.104197408570005743e-18 2.190082990192183096e-18 2.275968568587382399e-18 2.361854143629155178e-18 2.447739715191034475e-18 2.533625283146314898e-18 2.619510847368514080e-18 2.705396407731081861e-18 2.791281964107552436e-18 2.877167516371193452e-18 2.963053064395643104e-18 3.048938608054223735e-18 3.134824147220447586e-18 3.220709681767906630e-18 3.306595211569780305e-18 3.392480736499820052e-18 3.478366256431183740e-18 3.564251771237555786e-18 3.650137280792383719e-18 3.736022784968838889e-18 3.821908283640664263e-18 3.907793776681325473e-18 3.993679263964154877e-18 4.079564745362657395e-18 4.165450220750291727e-18 4.251335690000518113e-18
0.000000000000000000e+00 0.000000000000000000e+00 0.000000000000000000e+00 0.000000000000000000e+00 0.000000000000000000e+00 0.000000000000000000e+00 0.000000000000000000e+00 0.000000000000000000e+00 0.000000000000000000e+00 0.000000000000000000e+00 0.000000000000000000e+00 0.000000000000000000e+00 0.000000000000000000e+00 0.000000000000000000e+00 0.000000000000000000e+00 0.000000000000000000e+00 0.000000000000000000e+00 0.000000000000000000e+00 0.000000000000000000e+00 0.000000000000000000e+00 0.000000000000000000e+00 0.000000000000000000e+00 0.000000000000000000e+00 0.000000000000000000e+00 0.000000000000000000e+00 0.000000000000000000e+00 0.000000000000000000e+00 0.000000000000000000e+00 0.000000000000000000e+00 0.000000000000000000e+00 0.000000000000000000e+00 0.000000000000000000e+00 0.000000000000000000e+00 0.000000000000000000e+00 0.000000000000000000e+00 0.000000000000000000e+00 0.000000000000000000e+00 0.000000000000000000e+00 0.000000000000000000e+00 0.000000000000000000e+00 0.000000000000000000e+00 0.000000000000000000e+00 0.000000000000000000e+00 0.000000000000000000e+00 0.000000000000000000e+00 0.000000000000000000e+00 0.000000000000000000e+00 0.000000000000000000e+00 0.000000000000000000e+00 0.000000000000000000e+00 0.000000000000000000e+00 0.000000000000000000e+00 0.000000000000000000e+00 0.000000000000000000e+00 0.000000000000000000e+00 0.000000000000000000e+00 0.000000000000000000e+00 0.000000000000000000e+00 0.000000000000000000e+00 0.000000000000000000e+00 0.000000000000000000e+00 0.000000000000000000e+00 0.000000000000000000e+00 0.000000000000000000e+00 0.000000000000000000e+00 0.000000000000000000e+00 0.000000000000000000e+00 0.000000000000000000e+00 0.000000000000000000e+00 0.000000000000000000e+00 0.000000000000000000e+00 0.000000000000000000e+00 0.000000000000000000e+00 0.000000000000000000e+00 0.000000000000000000e+00 0.000000000000000000e+00 0.000000000000000000e+00 0.000000000000000000e+00 0.000000000000000000e+00 0.000000000000000000e+00 0.000000000000000000e+00 0.000000000000000000e+00 0.000000000000000000e+00 0.000000000000000000e+00 0.000000000000000000e+00 0.000000000000000000e+00 0.000000000000000000e+00 0.000000000000000000e+00 0.000000000000000000e+00 0.000000000000000000e+00 0.000000000000000000e+00 0.000000000000000000e+00 0.000000000000000000e+00 0.000000000000000000e+00 0.000000000000000000e+00 0.000000000000000000e+00 0.000000000000000000e+00 0.000000000000000000e+00 0.000000000000000000e+00 0.000000000000000000e+00
