# 
#                 ----------------------------------------------------
#                 Data from a 3D direct N-body simulation. 
# 
#                 rows are i-particle; 
#                 coumns are :mass, tag, x ,y, z, vx, vy, vz, ax, ay, az
# 
#                 NTHU, Computational Physics Lab
# 
#                 ----------------------------------------------------
#                 Time = 0.0
1.000000000000000000e+00 2.000000000000000000e+00 3.000000000000000000e+00 4.000000000000000000e+00 5.000000000000000000e+00 6.000000000000000000e+00 7.000000000000000000e+00 8.000000000000000000e+00 9.000000000000000000e+00 1.000000000000000000e+01 1.100000000000000000e+01 1.200000000000000000e+01 1.300000000000000000e+01 1.400000000000000000e+01 1.500000000000000000e+01 1.600000000000000000e+01 1.700000000000000000e+01 1.800000000000000000e+01 1.900000000000000000e+01 2.000000000000000000e+01 2.100000000000000000e+01 2.200000000000000000e+01 2.300000000000000000e+01 2.400000000000000000e+01 2.500000000000000000e+01 2.600000000000000000e+01 2.700000000000000000e+01 2.800000000000000000e+01 2.900000000000000000e+01 3.000000000000000000e+01 3.100000000000000000e+01 3.200000000000000000e+01 3.300000000000000000e+01 3.400000000000000000e+01 3.500000000000000000e+01 3.600000000000000000e+01 3.700000000000000000e+01 3.800000000000000000e+01 3.900000000000000000e+01 4.000000000000000000e+01 4.100000000000000000e+01 4.200000000000000000e+01 4.300000000000000000e+01 4.400000000000000000e+01 4.500000000000000000e+01 4.600000000000000000e+01 4.700000000000000000e+01 4.800000000000000000e+01 4.900000000000000000e+01 5.000000000000000000e+01 5.100000000000000000e+01 5.200000000000000000e+01 5.300000000000000000e+01 5.400000000000000000e+01 5.500000000000000000e+01 5.600000000000000000e+01 5.700000000000000000e+01 5.800000000000000000e+01 5.900000000000000000e+01 6.000000000000000000e+01 6.100000000000000000e+01 6.200000000000000000e+01 6.300000000000000000e+01 6.400000000000000000e+01 6.500000000000000000e+01 6.600000000000000000e+01 6.700000000000000000e+01 6.800000000000000000e+01 6.900000000000000000e+01 7.000000000000000000e+01 7.100000000000000000e+01 7.200000000000000000e+01 7.300000000000000000e+01 7.400000000000000000e+01 7.500000000000000000e+01 7.600000000000000000e+01 7.700000000000000000e+01 7.800000000000000000e+01 7.900000000000000000e+01 8.000000000000000000e+01 8.100000000000000000e+01 8.200000000000000000e+01 8.300000000000000000e+01 8.400000000000000000e+01 8.500000000000000000e+01 8.600000000000000000e+01 8.700000000000000000e+01 8.800000000000000000e+01 8.900000000000000000e+01 9.000000000000000000e+01 9.100000000000000000e+01 9.200000000000000000e+01 9.300000000000000000e+01 9.400000000000000000e+01 9.500000000000000000e+01 9.600000000000000000e+01 9.700000000000000000e+01 9.800000000000000000e+01 9.900000000000000000e+01 1.000000000000000000e+02
1.000000000000000000e+00 1.000000000000000000e+00 1.000000000000000000e+00 1.000000000000000000e+00 1.000000000000000000e+00 1.000000000000000000e+00 1.000000000000000000e+00 1.000000000000000000e+00 1.000000000000000000e+00 1.000000000000000000e+00 1.000000000000000000e+00 1.000000000000000000e+00 1.000000000000000000e+00 1.000000000000000000e+00 1.000000000000000000e+00 1.000000000000000000e+00 1.000000000000000000e+00 1.000000000000000000e+00 1.000000000000000000e+00 1.000000000000000000e+00 1.000000000000000000e+00 1.000000000000000000e+00 1.000000000000000000e+00 1.000000000000000000e+00 1.000000000000000000e+00 1.000000000000000000e+00 1.000000000000000000e+00 1.000000000000000000e+00 1.000000000000000000e+00 1.000000000000000000e+00 1.000000000000000000e+00 1.000000000000000000e+00 1.000000000000000000e+00 1.000000000000000000e+00 1.000000000000000000e+00 1.000000000000000000e+00 1.000000000000000000e+00 1.000000000000000000e+00 1.000000000000000000e+00 1.000000000000000000e+00 1.000000000000000000e+00 1.000000000000000000e+00 1.000000000000000000e+00 1.000000000000000000e+00 1.000000000000000000e+00 1.000000000000000000e+00 1.000000000000000000e+00 1.000000000000000000e+00 1.000000000000000000e+00 1.000000000000000000e+00 1.000000000000000000e+00 1.000000000000000000e+00 1.000000000000000000e+00 1.000000000000000000e+00 1.000000000000000000e+00 1.000000000000000000e+00 1.000000000000000000e+00 1.000000000000000000e+00 1.000000000000000000e+00 1.000000000000000000e+00 1.000000000000000000e+00 1.000000000000000000e+00 1.000000000000000000e+00 1.000000000000000000e+00 1.000000000000000000e+00 1.000000000000000000e+00 1.000000000000000000e+00 1.000000000000000000e+00 1.000000000000000000e+00 1.000000000000000000e+00 1.000000000000000000e+00 1.000000000000000000e+00 1.000000000000000000e+00 1.000000000000000000e+00 1.000000000000000000e+00 1.000000000000000000e+00 1.000000000000000000e+00 1.000000000000000000e+00 1.000000000000000000e+00 1.000000000000000000e+00 1.000000000000000000e+00 1.000000000000000000e+00 1.000000000000000000e+00 1.000000000000000000e+00 1.000000000000000000e+00 1.000000000000000000e+00 1.000000000000000000e+00 1.000000000000000000e+00 1.000000000000000000e+00 1.000000000000000000e+00 1.000000000000000000e+00 1.000000000000000000e+00 1.000000000000000000e+00 1.000000000000000000e+00 1.000000000000000000e+00 1.000000000000000000e+00 1.000000000000000000e+00 1.000000000000000000e+00 1.000000000000000000e+00 1.000000000000000000e+00
-7.153575000405982413e-06 -7.009058333727196306e-06 -6.864541667048648215e-06 -6.720025000370335600e-06 -6.575508333692252530e-06 -6.430991667014396465e-06 -6.286475000336758935e-06 -6.141958333659336550e-06 -5.997441666982125925e-06 -5.852925000305119434e-06 -5.708408333628312843e-06 -5.563891666951702763e-06 -5.419375000275282419e-06 -5.274858333599047575e-06 -5.130341666922994844e-06 -4.985825000247116601e-06 -4.841308333571409458e-06 -4.696791666895867487e-06 -4.552275000220488147e-06 -4.407758333545262966e-06 -4.263241666870188558e-06 -4.118725000195260686e-06 -3.974208333520473421e-06 -3.829691666845822529e-06 -3.685175000171303350e-06 -3.540658333496909956e-06 -3.396141666822636417e-06 -3.251625000148480192e-06 -3.107108333474435352e-06 -2.962591666800496814e-06 -2.818075000126659497e-06 -2.673558333452918318e-06 -2.529041666779268619e-06 -2.384525000105704894e-06 -2.240008333432222907e-06 -2.095491666758817577e-06 -1.950975000085483821e-06 -1.806458333412216980e-06 -1.661941666739011550e-06 -1.517425000065863929e-06 -1.372908333392767554e-06 -1.228391666719718401e-06 -1.083875000046712023e-06 -9.393583333737420681e-07 -7.948416667008044059e-07 -6.503250000278939546e-07 -5.058083333550054203e-07 -3.612916666821344619e-07 -2.167750000092756003e-07 -7.225833333642442805e-08 7.225833333642442805e-08 2.167750000092755738e-07 3.612916666821343031e-07 5.058083333550054203e-07 6.503250000278938487e-07 7.948416667008043000e-07 9.393583333737418564e-07 1.083875000046711812e-06 1.228391666719718613e-06 1.372908333392767766e-06 1.517425000065863929e-06 1.661941666739011761e-06 1.806458333412216980e-06 1.950975000085483821e-06 2.095491666758817577e-06 2.240008333432222907e-06 2.384525000105704894e-06 2.529041666779268619e-06 2.673558333452918318e-06 2.818075000126659497e-06 2.962591666800496814e-06 3.107108333474435352e-06 3.251625000148480192e-06 3.396141666822636417e-06 3.540658333496909956e-06 3.685175000171303774e-06 3.829691666845823376e-06 3.974208333520474268e-06 4.118725000195261533e-06 4.263241666870189405e-06 4.407758333545262966e-06 4.552275000220488147e-06 4.696791666895868335e-06 4.841308333571410305e-06 4.985825000247117448e-06 5.130341666922994844e-06 5.274858333599047575e-06 5.419375000275281572e-06 5.563891666951701916e-06 5.708408333628312843e-06 5.852925000305119434e-06 5.997441666982125925e-06 6.141958333659337398e-06 6.286475000336758935e-06 6.430991667014396465e-06 6.575508333692254224e-06 6.720025000370336447e-06 6.864541667048648215e-06 7.009058333727196306e-06 7.153575000405981566e-06
-1.347785034304438219e-22 -1.320557053818237457e-22 -1.293329073331742587e-22 -1.266101092844960426e-22 -1.238873112357896381e-22 -1.211645131870557036e-22 -1.184417151382948267e-22 -1.157189170895075718e-22 -1.129961190406945735e-22 -1.102733209918564431e-22 -1.075505229429938155e-22 -1.048277248941072430e-22 -1.021049268451973605e-22 -9.938212879626476739e-23 -9.665933074731007502e-23 -9.393653269833384758e-23 -9.121373464933673162e-23 -8.849093660031932662e-23 -8.576813855128223209e-23 -8.304534050222607104e-23 -8.032254245315143122e-23 -7.759974440405892389e-23 -7.487694635494914854e-23 -7.215414830582271644e-23 -6.943135025668025060e-23 -6.670855220752232700e-23 -6.398575415834958042e-23 -6.126295610916258685e-23 -5.854015805996196931e-23 -5.581736001074831552e-23 -5.309456196152224852e-23 -5.037176391228438544e-23 -4.764896586303530813e-23 -4.492616781377563375e-23 -4.220336976450596766e-23 -3.948057171522692113e-23 -3.675777366593908190e-23 -3.403497561664305535e-23 -3.131217756733947625e-23 -2.858937951802893235e-23 -2.586658146871201433e-23 -2.314378341938935108e-23 -2.042098537006154798e-23 -1.769818732072918690e-23 -1.497538927139289967e-23 -1.225259122205328726e-23 -9.529793172710933009e-24 -6.806995123366465808e-24 -4.084197074020488832e-24 -1.361399024673594602e-24 1.361399024673595153e-24 4.084197074020486628e-24 6.806995123366462869e-24 9.529793172710930070e-24 1.225259122205329020e-23 1.497538927139290555e-23 1.769818732072918984e-23 2.042098537006154504e-23 2.314378341938935989e-23 2.586658146871201726e-23 2.858937951802892059e-23 3.131217756733947625e-23 3.403497561664307298e-23 3.675777366593908777e-23 3.948057171522692113e-23 4.220336976450597941e-23 4.492616781377563962e-23 4.764896586303530813e-23 5.037176391228439131e-23 5.309456196152224852e-23 5.581736001074829201e-23 5.854015805996195755e-23 6.126295610916257510e-23 6.398575415834954516e-23 6.670855220752229174e-23 6.943135025668021533e-23 7.215414830582270468e-23 7.487694635494914854e-23 7.759974440405888862e-23 8.032254245315140771e-23 8.304534050222604753e-23 8.576813855128219682e-23 8.849093660031929135e-23 9.121373464933668460e-23 9.393653269833382407e-23 9.665933074731003975e-23 9.938212879626474388e-23 1.021049268451973605e-22 1.048277248941072430e-22 1.075505229429938625e-22 1.102733209918564902e-22 1.129961190406945735e-22 1.157189170895075953e-22 1.184417151382948503e-22 1.211645131870557741e-22 1.238873112357897322e-22 1.266101092844961131e-22 1.293329073331743292e-22 1.320557053818238398e-22 1.347785034304439159e-22
0.000000000000000000e+00 0.000000000000000000e+00 0.000000000000000000e+00 0.000000000000000000e+00 0.000000000000000000e+00 0.000000000000000000e+00 0.000000000000000000e+00 0.000000000000000000e+00 0.000000000000000000e+00 0.000000000000000000e+00 0.000000000000000000e+00 0.000000000000000000e+00 0.000000000000000000e+00 0.000000000000000000e+00 0.000000000000000000e+00 0.000000000000000000e+00 0.000000000000000000e+00 0.000000000000000000e+00 0.000000000000000000e+00 0.000000000000000000e+00 0.000000000000000000e+00 0.000000000000000000e+00 0.000000000000000000e+00 0.000000000000000000e+00 0.000000000000000000e+00 0.000000000000000000e+00 0.000000000000000000e+00 0.000000000000000000e+00 0.000000000000000000e+00 0.000000000000000000e+00 0.000000000000000000e+00 0.000000000000000000e+00 0.000000000000000000e+00 0.000000000000000000e+00 0.000000000000000000e+00 0.000000000000000000e+00 0.000000000000000000e+00 0.000000000000000000e+00 0.000000000000000000e+00 0.000000000000000000e+00 0.000000000000000000e+00 0.000000000000000000e+00 0.000000000000000000e+00 0.000000000000000000e+00 0.000000000000000000e+00 0.000000000000000000e+00 0.000000000000000000e+00 0.000000000000000000e+00 0.000000000000000000e+00 0.000000000000000000e+00 0.000000000000000000e+00 0.000000000000000000e+00 0.000000000000000000e+00 0.000000000000000000e+00 0.000000000000000000e+00 0.000000000000000000e+00 0.000000000000000000e+00 0.000000000000000000e+00 0.000000000000000000e+00 0.000000000000000000e+00 0.000000000000000000e+00 0.000000000000000000e+00 0.000000000000000000e+00 0.000000000000000000e+00 0.000000000000000000e+00 0.000000000000000000e+00 0.000000000000000000e+00 0.000000000000000000e+00 0.000000000000000000e+00 0.000000000000000000e+00 0.000000000000000000e+00 0.000000000000000000e+00 0.000000000000000000e+00 0.000000000000000000e+00 0.000000000000000000e+00 0.000000000000000000e+00 0.000000000000000000e+00 0.000000000000000000e+00 0.000000000000000000e+00 0.000000000000000000e+00 0.000000000000000000e+00 0.000000000000000000e+00 0.000000000000000000e+00 0.000000000000000000e+00 0.000000000000000000e+00 0.000000000000000000e+00 0.000000000000000000e+00 0.000000000000000000e+00 0.000000000000000000e+00 0.000000000000000000e+00 0.000000000000000000e+00 0.000000000000000000e+00 0.000000000000000000e+00 0.000000000000000000e+00 0.000000000000000000e+00 0.000000000000000000e+00 0.000000000000000000e+00 0.000000000000000000e+00 0.000000000000000000e+00 0.000000000000000000e+00
-1.217936289964720179e-12 -1.181578057408473303e-12 -1.145939416186852160e-12 -1.111005536955236113e-12 -1.076761631873618533e-12 -1.043192761313689211e-12 -1.010284178093023190e-12 -9.780209895936384291e-13 -9.463883711295954993e-13 -9.153714931021635141e-13 -8.849555416674250321e-13 -8.551256600368916407e-13 -8.258669847305147652e-13 -7.971646504047734075e-13 -7.690039777245817060e-13 -7.413699808983336236e-13 -7.142478629380670460e-13 -6.876227690881726139e-13 -6.614799245529515726e-13 -6.358044008002248365e-13 -6.105814338763153355e-13 -5.857961649598556036e-13 -5.614337581840713690e-13 -5.374793587933532723e-13 -5.139181534520034585e-13 -4.907352947735991490e-13 -4.679159290189708643e-13 -4.454452458170358127e-13 -4.233083772831741541e-13 -4.014905177896876217e-13 -3.799768108869012138e-13 -3.587524389192487722e-13 -3.378025209578030388e-13 -3.171122517983823213e-13 -2.966668037057284089e-13 -2.764513117598367268e-13 -2.564509537311633729e-13 -2.366509238226033998e-13 -2.170363263668563634e-13 -1.975923776743773607e-13 -1.783041925810743472e-13 -1.591569851104135229e-13 -1.401359219367192304e-13 -1.212261045127789493e-13 -1.024127272108944378e-13 -8.368095755242302346e-14 -6.501594688039274652e-14 -4.640287609928151760e-14 -2.782688003497490541e-14 -9.273158311378943558e-15 9.273157718455881111e-15 2.782688283018363198e-14 4.640286618899603852e-14 6.501594256052472057e-14 8.368095306314840554e-14 1.024127257709384249e-13 1.212260924002078187e-13 1.401359078759723110e-13 1.591570015428527047e-13 1.783042144345243964e-13 1.975923801307728875e-13 2.170363355995154935e-13 2.366509143358344006e-13 2.564509663519542668e-13 2.764513073552654111e-13 2.966667837157508335e-13 3.171122422269100072e-13 3.378025107087044073e-13 3.587524315500621411e-13 3.799768116492308462e-13 4.014905149944789361e-13 4.233083727938995236e-13 4.454452404807282349e-13 4.679159250379159719e-13 4.907352874044124675e-13 5.139181732725744041e-13 5.374793777668913716e-13 5.614337815621807334e-13 5.857962064644700191e-13 6.105814767361824867e-13 6.358044403566635137e-13 6.614799445429290470e-13 6.876228196560396054e-13 7.142478886031653074e-13 7.413699848793885161e-13 7.690039723035708638e-13 7.971646838625748241e-13 8.258669350096807209e-13 8.551256253085408032e-13 8.849555461566997131e-13 9.153715302022067654e-13 9.463884240691547027e-13 9.780210346557912635e-13 1.010284239672318496e-12 1.043192836784324932e-12 1.076761691081221627e-12 1.111005618609212309e-12 1.145939473700389359e-12 1.181578085445263978e-12 1.217936281155577447e-12
-1.617342026846527688e-20 -1.584668450690535584e-20 -1.551994874525730545e-20 -1.519321298352294933e-20 -1.486647722170410506e-20 -1.453974145980258725e-20 -1.421300569782021046e-20 -1.388626993575878931e-20 -1.355953417362015039e-20 -1.323279841140610079e-20 -1.290606264911847164e-20 -1.257932688675906398e-20 -1.225259112432970594e-20 -1.192585536183220459e-20 -1.159911959926838504e-20 -1.127238383664005888e-20 -1.094564807394904520e-20 -1.061891231119716612e-20 -1.029217654838623171e-20 -9.965440785518062571e-21 -9.638705022594471789e-21 -9.311969259617279969e-21 -8.985233496588303203e-21 -8.658497733509357583e-21 -8.331761970382263714e-21 -8.005026207208837688e-21 -7.678290443990892589e-21 -7.351554680730246011e-21 -7.024818917428720065e-21 -6.698083154088125577e-21 -6.371347390710282401e-21 -6.044611627297010388e-21 -5.717875863850117357e-21 -5.391140100371430683e-21 -5.064404336862762696e-21 -4.737668573325930241e-21 -4.410932809762752419e-21 -4.084197046175043816e-21 -3.757461282564622029e-21 -3.430725518933306159e-21 -3.103989755282910793e-21 -2.777253991615254281e-21 -2.450518227932153089e-21 -2.123782464235423685e-21 -1.797046700526884419e-21 -1.470310936808351383e-21 -1.143575173081641795e-21 -8.168394093485725953e-22 -4.901036456109610031e-22 -1.633678818706231104e-22 1.633678818706221230e-22 4.901036456109596866e-22 8.168394093485719370e-22 1.143575173081641043e-21 1.470310936808351383e-21 1.797046700526885172e-21 2.123782464235423309e-21 2.450518227932151960e-21 2.777253991615254281e-21 3.103989755282911546e-21 3.430725518933306911e-21 3.757461282564623534e-21 4.084197046175046073e-21 4.410932809762752419e-21 4.737668573325932498e-21 5.064404336862762696e-21 5.391140100371429178e-21 5.717875863850117357e-21 6.044611627297006627e-21 6.371347390710280144e-21 6.698083154088122568e-21 7.024818917428717056e-21 7.351554680730244506e-21 7.678290443990889579e-21 8.005026207208833175e-21 8.331761970382262209e-21 8.658497733509357583e-21 8.985233496588303203e-21 9.311969259617278464e-21 9.638705022594467275e-21 9.965440785518058057e-21 1.029217654838622870e-20 1.061891231119716462e-20 1.094564807394904520e-20 1.127238383664005737e-20 1.159911959926838053e-20 1.192585536183219857e-20 1.225259112432969992e-20 1.257932688675906398e-20 1.290606264911847164e-20 1.323279841140610079e-20 1.355953417362015039e-20 1.388626993575879231e-20 1.421300569782020445e-20 1.453974145980258725e-20 1.486647722170410807e-20 1.519321298352295234e-20 1.551994874525730846e-20 1.584668450690535584e-20 1.617342026846527387e-20
0.000000000000000000e+00 0.000000000000000000e+00 0.000000000000000000e+00 0.000000000000000000e+00 0.000000000000000000e+00 0.000000000000000000e+00 0.000000000000000000e+00 0.000000000000000000e+00 0.000000000000000000e+00 0.000000000000000000e+00 0.000000000000000000e+00 0.000000000000000000e+00 0.000000000000000000e+00 0.000000000000000000e+00 0.000000000000000000e+00 0.000000000000000000e+00 0.000000000000000000e+00 0.000000000000000000e+00 0.000000000000000000e+00 0.000000000000000000e+00 0.000000000000000000e+00 0.000000000000000000e+00 0.000000000000000000e+00 0.000000000000000000e+00 0.000000000000000000e+00 0.000000000000000000e+00 0.000000000000000000e+00 0.000000000000000000e+00 0.000000000000000000e+00 0.000000000000000000e+00 0.000000000000000000e+00 0.000000000000000000e+00 0.000000000000000000e+00 0.000000000000000000e+00 0.000000000000000000e+00 0.000000000000000000e+00 0.000000000000000000e+00 0.000000000000000000e+00 0.000000000000000000e+00 0.000000000000000000e+00 0.000000000000000000e+00 0.000000000000000000e+00 0.000000000000000000e+00 0.000000000000000000e+00 0.000000000000000000e+00 0.000000000000000000e+00 0.000000000000000000e+00 0.000000000000000000e+00 0.000000000000000000e+00 0.000000000000000000e+00 0.000000000000000000e+00 0.000000000000000000e+00 0.000000000000000000e+00 0.000000000000000000e+00 0.000000000000000000e+00 0.000000000000000000e+00 0.000000000000000000e+00 0.000000000000000000e+00 0.000000000000000000e+00 0.000000000000000000e+00 0.000000000000000000e+00 0.000000000000000000e+00 0.000000000000000000e+00 0.000000000000000000e+00 0.000000000000000000e+00 0.000000000000000000e+00 0.000000000000000000e+00 0.000000000000000000e+00 0.000000000000000000e+00 0.000000000000000000e+00 0.000000000000000000e+00 0.000000000000000000e+00 0.000000000000000000e+00 0.000000000000000000e+00 0.000000000000000000e+00 0.000000000000000000e+00 0.000000000000000000e+00 0.000000000000000000e+00 0.000000000000000000e+00 0.000000000000000000e+00 0.000000000000000000e+00 0.000000000000000000e+00 0.000000000000000000e+00 0.000000000000000000e+00 0.000000000000000000e+00 0.000000000000000000e+00 0.000000000000000000e+00 0.000000000000000000e+00 0.000000000000000000e+00 0.000000000000000000e+00 0.000000000000000000e+00 0.000000000000000000e+00 0.000000000000000000e+00 0.000000000000000000e+00 0.000000000000000000e+00 0.000000000000000000e+00 0.000000000000000000e+00 0.000000000000000000e+00 0.000000000000000000e+00 0.000000000000000000e+00
6.603299832466099717e-04 6.469899837467374404e-04 6.336499842369665769e-04 6.203099847175012112e-04 6.069699851885451735e-04 5.936299856503034862e-04 5.802899861029792205e-04 5.669499865467772905e-04 5.536099869819014179e-04 5.402699874085555411e-04 5.269299878269439238e-04 5.135899882372707212e-04 5.002499886397399802e-04 4.869099890345563440e-04 4.735699894219221788e-04 4.602299898020431579e-04 4.468899901751230029e-04 4.335499905413659231e-04 4.202099909009753692e-04 4.068699912541564722e-04 3.935299916011124116e-04 3.801899919420476137e-04 3.668499922771661795e-04 3.535099926066722644e-04 3.401699929307698067e-04 3.268299932496630702e-04 3.134899935635562102e-04 3.001499938726530023e-04 2.868099941771579272e-04 2.734699944772748148e-04 2.601299947732079289e-04 2.467899950651610452e-04 2.334499953533387799e-04 2.201099956379448815e-04 2.067699959191833970e-04 1.934299961972586442e-04 1.800899964723746429e-04 1.667499967447350876e-04 1.534099970145447298e-04 1.400699972820070201e-04 1.267299975473266558e-04 1.133899978107071418e-04 1.000499980723525519e-04 8.670999833246752935e-05 7.336999859125601254e-05 6.002999884892198733e-05 4.668999910566954802e-05 3.334999936170271435e-05 2.000999961722574661e-05 6.669999872442589164e-06 -6.669999872442612881e-06 -2.000999961722573983e-05 -3.334999936170284987e-05 -4.668999910566952769e-05 -6.002999884892206865e-05 -7.336999859125603964e-05 -8.670999833246769198e-05 -1.000499980723527281e-04 -1.133899978107069521e-04 -1.267299975473264119e-04 -1.400699972820069659e-04 -1.534099970145445400e-04 -1.667499967447351689e-04 -1.800899964723745074e-04 -1.934299961972586984e-04 -2.067699959191835596e-04 -2.201099956379449357e-04 -2.334499953533388070e-04 -2.467899950651610452e-04 -2.601299947732078205e-04 -2.734699944772748690e-04 -2.868099941771579272e-04 -3.001499938726530023e-04 -3.134899935635561017e-04 -3.268299932496630702e-04 -3.401699929307695899e-04 -3.535099926066719933e-04 -3.668499922771658543e-04 -3.801899919420471800e-04 -3.935299916011118695e-04 -4.068699912541559843e-04 -4.202099909009752066e-04 -4.335499905413654352e-04 -4.468899901751226776e-04 -4.602299898020431579e-04 -4.735699894219222330e-04 -4.869099890345560187e-04 -5.002499886397404139e-04 -5.135899882372709380e-04 -5.269299878269440322e-04 -5.402699874085553243e-04 -5.536099869819008758e-04 -5.669499865467766400e-04 -5.802899861029785699e-04 -5.936299856503026188e-04 -6.069699851885445229e-04 -6.203099847175004523e-04 -6.336499842369660348e-04 -6.469899837467371151e-04 -6.603299832466099717e-04
-8.086710115671234317e-20 -7.923342235445372269e-20 -7.759974355164479180e-20 -7.596606474829690145e-20 -7.433238594442146278e-20 -7.269870714002976655e-20 -7.106502833513317574e-20 -6.943134952974300521e-20 -6.779767072387059385e-20 -6.616399191752735281e-20 -6.453031311072463303e-20 -6.289663430347370120e-20 -6.126295549578594439e-20 -5.962927668767265336e-20 -5.799559787914527535e-20 -5.636191907021511317e-20 -5.472824026089346961e-20 -5.309456145119173777e-20 -5.146088264112126858e-20 -4.982720383069338892e-20 -4.819352501991939557e-20 -4.655984620881075987e-20 -4.492616739737869432e-20 -4.329248858563462210e-20 -4.165880977358987610e-20 -4.002513096125584941e-20 -3.839145214864381473e-20 -3.675777333576512903e-20 -3.512409452263117336e-20 -3.349041570925327458e-20 -3.185673689564275958e-20 -3.022305808181100939e-20 -2.858937926776931479e-20 -2.695570045352909592e-20 -2.532202163910166162e-20 -2.368834282449834779e-20 -2.205466400973051440e-20 -2.042098519480950338e-20 -1.878730637974666266e-20 -1.715362756455334621e-20 -1.551994874924090497e-20 -1.388626993382065077e-20 -1.225259111830399325e-20 -1.061891230270220511e-20 -8.985233487026677928e-21 -7.351554671288741589e-21 -5.717875855499743279e-21 -4.084197039671046738e-21 -2.450518223813982228e-21 -8.168394079398858381e-22 8.168394079398717322e-22 2.450518223813967181e-21 4.084197039671040720e-21 5.717875855499747041e-21 7.351554671288740084e-21 8.985233487026679433e-21 1.061891230270219608e-20 1.225259111830397218e-20 1.388626993382065980e-20 1.551994874924090196e-20 1.715362756455335222e-20 1.878730637974666567e-20 2.042098519480950940e-20 2.205466400973051440e-20 2.368834282449835080e-20 2.532202163910163755e-20 2.695570045352906583e-20 2.858937926776930877e-20 3.022305808181098532e-20 3.185673689564275356e-20 3.349041570925325653e-20 3.512409452263117938e-20 3.675777333576514107e-20 3.839145214864380871e-20 4.002513096125583135e-20 4.165880977358989416e-20 4.329248858563464617e-20 4.492616739737870033e-20 4.655984620881073579e-20 4.819352501991936548e-20 4.982720383069333475e-20 5.146088264112121441e-20 5.309456145119169564e-20 5.472824026089343350e-20 5.636191907021508909e-20 5.799559787914526331e-20 5.962927668767265336e-20 6.126295549578593235e-20 6.289663430347368916e-20 6.453031311072466914e-20 6.616399191752741299e-20 6.779767072387069015e-20 6.943134952974311354e-20 7.106502833513326000e-20 7.269870714002992303e-20 7.433238594442157111e-20 7.596606474829700978e-20 7.759974355164488809e-20 7.923342235445378287e-20 8.086710115671233114e-20
0.000000000000000000e+00 0.000000000000000000e+00 0.000000000000000000e+00 0.000000000000000000e+00 0.000000000000000000e+00 0.000000000000000000e+00 0.000000000000000000e+00 0.000000000000000000e+00 0.000000000000000000e+00 0.000000000000000000e+00 0.000000000000000000e+00 0.000000000000000000e+00 0.000000000000000000e+00 0.000000000000000000e+00 0.000000000000000000e+00 0.000000000000000000e+00 0.000000000000000000e+00 0.000000000000000000e+00 0.000000000000000000e+00 0.000000000000000000e+00 0.000000000000000000e+00 0.000000000000000000e+00 0.000000000000000000e+00 0.000000000000000000e+00 0.000000000000000000e+00 0.000000000000000000e+00 0.000000000000000000e+00 0.000000000000000000e+00 0.000000000000000000e+00 0.000000000000000000e+00 0.000000000000000000e+00 0.000000000000000000e+00 0.000000000000000000e+00 0.000000000000000000e+00 0.000000000000000000e+00 0.000000000000000000e+00 0.000000000000000000e+00 0.000000000000000000e+00 0.000000000000000000e+00 0.000000000000000000e+00 0.000000000000000000e+00 0.000000000000000000e+00 0.000000000000000000e+00 0.000000000000000000e+00 0.000000000000000000e+00 0.000000000000000000e+00 0.000000000000000000e+00 0.000000000000000000e+00 0.000000000000000000e+00 0.000000000000000000e+00 0.000000000000000000e+00 0.000000000000000000e+00 0.000000000000000000e+00 0.000000000000000000e+00 0.000000000000000000e+00 0.000000000000000000e+00 0.000000000000000000e+00 0.000000000000000000e+00 0.000000000000000000e+00 0.000000000000000000e+00 0.000000000000000000e+00 0.000000000000000000e+00 0.000000000000000000e+00 0.000000000000000000e+00 0.000000000000000000e+00 0.000000000000000000e+00 0.000000000000000000e+00 0.000000000000000000e+00 0.000000000000000000e+00 0.000000000000000000e+00 0.000000000000000000e+00 0.000000000000000000e+00 0.000000000000000000e+00 0.000000000000000000e+00 0.000000000000000000e+00 0.000000000000000000e+00 0.000000000000000000e+00 0.000000000000000000e+00 0.000000000000000000e+00 0.000000000000000000e+00 0.000000000000000000e+00 0.000000000000000000e+00 0.000000000000000000e+00 0.000000000000000000e+00 0.000000000000000000e+00 0.000000000000000000e+00 0.000000000000000000e+00 0.000000000000000000e+00 0.000000000000000000e+00 0.000000000000000000e+00 0.000000000000000000e+00 0.000000000000000000e+00 0.000000000000000000e+00 0.000000000000000000e+00 0.000000000000000000e+00 0.000000000000000000e+00 0.000000000000000000e+00 0.000000000000000000e+00 0.000000000000000000e+00 0.000000000000000000e+00
