# 
#                 ----------------------------------------------------
#                 Data from a 3D direct N-body simulation. 
# 
#                 rows are i-particle; 
#                 coumns are :mass, tag, x ,y, z, vx, vy, vz, ax, ay, az
# 
#                 NTHU, Computational Physics Lab
# 
#                 ----------------------------------------------------
#                 Time = 0.6
1.000000000000000000e+00 2.000000000000000000e+00 3.000000000000000000e+00 4.000000000000000000e+00 5.000000000000000000e+00 6.000000000000000000e+00 7.000000000000000000e+00 8.000000000000000000e+00 9.000000000000000000e+00 1.000000000000000000e+01 1.100000000000000000e+01 1.200000000000000000e+01 1.300000000000000000e+01 1.400000000000000000e+01 1.500000000000000000e+01 1.600000000000000000e+01 1.700000000000000000e+01 1.800000000000000000e+01 1.900000000000000000e+01 2.000000000000000000e+01 2.100000000000000000e+01 2.200000000000000000e+01 2.300000000000000000e+01 2.400000000000000000e+01 2.500000000000000000e+01 2.600000000000000000e+01 2.700000000000000000e+01 2.800000000000000000e+01 2.900000000000000000e+01 3.000000000000000000e+01 3.100000000000000000e+01 3.200000000000000000e+01 3.300000000000000000e+01 3.400000000000000000e+01 3.500000000000000000e+01 3.600000000000000000e+01 3.700000000000000000e+01 3.800000000000000000e+01 3.900000000000000000e+01 4.000000000000000000e+01 4.100000000000000000e+01 4.200000000000000000e+01 4.300000000000000000e+01 4.400000000000000000e+01 4.500000000000000000e+01 4.600000000000000000e+01 4.700000000000000000e+01 4.800000000000000000e+01 4.900000000000000000e+01 5.000000000000000000e+01 5.100000000000000000e+01 5.200000000000000000e+01 5.300000000000000000e+01 5.400000000000000000e+01 5.500000000000000000e+01 5.600000000000000000e+01 5.700000000000000000e+01 5.800000000000000000e+01 5.900000000000000000e+01 6.000000000000000000e+01 6.100000000000000000e+01 6.200000000000000000e+01 6.300000000000000000e+01 6.400000000000000000e+01 6.500000000000000000e+01 6.600000000000000000e+01 6.700000000000000000e+01 6.800000000000000000e+01 6.900000000000000000e+01 7.000000000000000000e+01 7.100000000000000000e+01 7.200000000000000000e+01 7.300000000000000000e+01 7.400000000000000000e+01 7.500000000000000000e+01 7.600000000000000000e+01 7.700000000000000000e+01 7.800000000000000000e+01 7.900000000000000000e+01 8.000000000000000000e+01 8.100000000000000000e+01 8.200000000000000000e+01 8.300000000000000000e+01 8.400000000000000000e+01 8.500000000000000000e+01 8.600000000000000000e+01 8.700000000000000000e+01 8.800000000000000000e+01 8.900000000000000000e+01 9.000000000000000000e+01 9.100000000000000000e+01 9.200000000000000000e+01 9.300000000000000000e+01 9.400000000000000000e+01 9.500000000000000000e+01 9.600000000000000000e+01 9.700000000000000000e+01 9.800000000000000000e+01 9.900000000000000000e+01 1.000000000000000000e+02
1.000000000000000000e+00 1.000000000000000000e+00 1.000000000000000000e+00 1.000000000000000000e+00 1.000000000000000000e+00 1.000000000000000000e+00 1.000000000000000000e+00 1.000000000000000000e+00 1.000000000000000000e+00 1.000000000000000000e+00 1.000000000000000000e+00 1.000000000000000000e+00 1.000000000000000000e+00 1.000000000000000000e+00 1.000000000000000000e+00 1.000000000000000000e+00 1.000000000000000000e+00 1.000000000000000000e+00 1.000000000000000000e+00 1.000000000000000000e+00 1.000000000000000000e+00 1.000000000000000000e+00 1.000000000000000000e+00 1.000000000000000000e+00 1.000000000000000000e+00 1.000000000000000000e+00 1.000000000000000000e+00 1.000000000000000000e+00 1.000000000000000000e+00 1.000000000000000000e+00 1.000000000000000000e+00 1.000000000000000000e+00 1.000000000000000000e+00 1.000000000000000000e+00 1.000000000000000000e+00 1.000000000000000000e+00 1.000000000000000000e+00 1.000000000000000000e+00 1.000000000000000000e+00 1.000000000000000000e+00 1.000000000000000000e+00 1.000000000000000000e+00 1.000000000000000000e+00 1.000000000000000000e+00 1.000000000000000000e+00 1.000000000000000000e+00 1.000000000000000000e+00 1.000000000000000000e+00 1.000000000000000000e+00 1.000000000000000000e+00 1.000000000000000000e+00 1.000000000000000000e+00 1.000000000000000000e+00 1.000000000000000000e+00 1.000000000000000000e+00 1.000000000000000000e+00 1.000000000000000000e+00 1.000000000000000000e+00 1.000000000000000000e+00 1.000000000000000000e+00 1.000000000000000000e+00 1.000000000000000000e+00 1.000000000000000000e+00 1.000000000000000000e+00 1.000000000000000000e+00 1.000000000000000000e+00 1.000000000000000000e+00 1.000000000000000000e+00 1.000000000000000000e+00 1.000000000000000000e+00 1.000000000000000000e+00 1.000000000000000000e+00 1.000000000000000000e+00 1.000000000000000000e+00 1.000000000000000000e+00 1.000000000000000000e+00 1.000000000000000000e+00 1.000000000000000000e+00 1.000000000000000000e+00 1.000000000000000000e+00 1.000000000000000000e+00 1.000000000000000000e+00 1.000000000000000000e+00 1.000000000000000000e+00 1.000000000000000000e+00 1.000000000000000000e+00 1.000000000000000000e+00 1.000000000000000000e+00 1.000000000000000000e+00 1.000000000000000000e+00 1.000000000000000000e+00 1.000000000000000000e+00 1.000000000000000000e+00 1.000000000000000000e+00 1.000000000000000000e+00 1.000000000000000000e+00 1.000000000000000000e+00 1.000000000000000000e+00 1.000000000000000000e+00 1.000000000000000000e+00
-2.492748766424994359e-04 -2.442390176378456557e-04 -2.392031588114071740e-04 -2.341673001595097380e-04 -2.291314416784790407e-04 -2.240955833646402601e-04 -2.190597252143198213e-04 -2.140238672238426853e-04 -2.089880093895335965e-04 -2.039521517077193052e-04 -1.989162941747245827e-04 -1.938804367868747968e-04 -1.888445795404958033e-04 -1.838087224319125633e-04 -1.787728654574514205e-04 -1.737370086134371462e-04 -1.687011518961955691e-04 -1.636652953020520027e-04 -1.586294388273320317e-04 -1.535935824683606985e-04 -1.485577262214638318e-04 -1.435218700829668265e-04 -1.384860140491950232e-04 -1.334501581164741421e-04 -1.284143022811295239e-04 -1.233784465394863466e-04 -1.183425908878703710e-04 -1.133067353226068429e-04 -1.082708798400212929e-04 -1.032350244364392105e-04 -9.819916910818584168e-05 -9.316331385158670327e-05 -8.812745866296737987e-05 -8.309160353865290049e-05 -7.805574847496913433e-05 -7.301989346824140853e-05 -6.798403851479507733e-05 -6.294818361095567115e-05 -5.791232875304843579e-05 -5.287647393739887457e-05 -4.784061916033245014e-05 -4.280476441817453707e-05 -3.776890970725066578e-05 -3.273305502388608207e-05 -2.769720036440626894e-05 -2.266134572513666870e-05 -1.762549110240261527e-05 -1.258963649252968310e-05 -7.553781891843251003e-06 -2.517927296668646095e-06 2.517927296668649483e-06 7.553781891843267096e-06 1.258963649252969496e-05 1.762549110240265932e-05 2.266134572513660772e-05 2.769720036440624522e-05 3.273305502388602109e-05 3.776890970725063190e-05 4.280476441817459806e-05 4.784061916033247047e-05 5.287647393739888812e-05 5.791232875304838158e-05 6.294818361095569825e-05 6.798403851479515865e-05 7.301989346824146274e-05 7.805574847496917499e-05 8.309160353865302246e-05 8.812745866296737987e-05 9.316331385158668971e-05 9.819916910818589589e-05 1.032350244364391292e-04 1.082708798400212793e-04 1.133067353226067616e-04 1.183425908878703032e-04 1.233784465394864550e-04 1.284143022811295781e-04 1.334501581164740879e-04 1.384860140491949690e-04 1.435218700829667452e-04 1.485577262214638318e-04 1.535935824683607527e-04 1.586294388273319774e-04 1.636652953020521382e-04 1.687011518961956504e-04 1.737370086134372004e-04 1.787728654574514476e-04 1.838087224319126989e-04 1.888445795404957762e-04 1.938804367868746884e-04 1.989162941747243929e-04 2.039521517077192781e-04 2.089880093895339218e-04 2.140238672238426853e-04 2.190597252143198755e-04 2.240955833646404499e-04 2.291314416784792033e-04 2.341673001595097922e-04 2.392031588114070656e-04 2.442390176378455473e-04 2.492748766424994359e-04
-2.260475252021658462e-19 -2.214809137401675769e-19 -2.169143019592618385e-19 -2.123476898660307855e-19 -2.077810774670477131e-19 -2.032144647688789108e-19 -1.986478517781306555e-19 -1.940812385013498570e-19 -1.895146249451015774e-19 -1.849480111159972691e-19 -1.803813970205868515e-19 -1.758147826654416456e-19 -1.712481680571516542e-19 -1.666815532022834316e-19 -1.621149381074216119e-19 -1.575483227791322923e-19 -1.529817072239950993e-19 -1.484150914485882875e-19 -1.438484754594819261e-19 -1.392818592632559788e-19 -1.347152428664770242e-19 -1.301486262757272408e-19 -1.255820094975754941e-19 -1.210153925386118350e-19 -1.164487754054026253e-19 -1.118821581045140583e-19 -1.073155406425449599e-19 -1.027489230260422279e-19 -9.818230526159670762e-20 -9.361568735578164605e-20 -8.904906931517372084e-20 -8.448245114634044938e-20 -7.991583285587295376e-20 -7.534921445032730413e-20 -7.078259593629081889e-20 -6.621597732034217378e-20 -6.164935860904215749e-20 -5.708273980898441990e-20 -5.251612092673072470e-20 -4.794950196886069858e-20 -4.338288294194929785e-20 -3.881626385257183992e-20 -3.424964470730595335e-20 -2.968302551272693148e-20 -2.511640627540472923e-20 -2.054978700191788392e-20 -1.598316769884254354e-20 -1.141654837275475677e-20 -6.849929030228492875e-21 -2.283309677838365864e-21 2.283309677838342542e-21 6.849929030228340907e-21 1.141654837275434450e-20 1.598316769884335905e-20 2.054978700191669827e-20 2.511640627540328779e-20 2.968302551272326620e-20 3.424964470730586909e-20 3.881626385257285104e-20 4.338288294194841914e-20 4.794950196885666014e-20 5.251612092672875062e-20 5.708273980898563565e-20 6.164935860905048714e-20 6.621597732034228211e-20 7.078259593629345500e-20 7.534921445032788191e-20 7.991583285586729634e-20 8.448245114633964289e-20 8.904906931517262547e-20 9.361568735577981642e-20 9.818230526159775484e-20 1.027489230260344038e-19 1.073155406425421312e-19 1.118821581045194269e-19 1.164487754054047920e-19 1.210153925386128943e-19 1.255820094975766737e-19 1.301486262757276982e-19 1.347152428664766390e-19 1.392818592632535232e-19 1.438484754594825038e-19 1.484150914485955097e-19 1.529817072240003715e-19 1.575483227791383349e-19 1.621149381074219490e-19 1.666815532022809279e-19 1.712481680571524005e-19 1.758147826654356512e-19 1.803813970205829274e-19 1.849480111159918765e-19 1.895146249451072107e-19 1.940812385013531552e-19 1.986478517781293795e-19 2.032144647688860127e-19 2.077810774670480260e-19 2.123476898660300874e-19 2.169143019592601534e-19 2.214809137401637732e-19 2.260475252021658462e-19
0.000000000000000000e+00 0.000000000000000000e+00 0.000000000000000000e+00 0.000000000000000000e+00 0.000000000000000000e+00 0.000000000000000000e+00 0.000000000000000000e+00 0.000000000000000000e+00 0.000000000000000000e+00 0.000000000000000000e+00 0.000000000000000000e+00 0.000000000000000000e+00 0.000000000000000000e+00 0.000000000000000000e+00 0.000000000000000000e+00 0.000000000000000000e+00 0.000000000000000000e+00 0.000000000000000000e+00 0.000000000000000000e+00 0.000000000000000000e+00 0.000000000000000000e+00 0.000000000000000000e+00 0.000000000000000000e+00 0.000000000000000000e+00 0.000000000000000000e+00 0.000000000000000000e+00 0.000000000000000000e+00 0.000000000000000000e+00 0.000000000000000000e+00 0.000000000000000000e+00 0.000000000000000000e+00 0.000000000000000000e+00 0.000000000000000000e+00 0.000000000000000000e+00 0.000000000000000000e+00 0.000000000000000000e+00 0.000000000000000000e+00 0.000000000000000000e+00 0.000000000000000000e+00 0.000000000000000000e+00 0.000000000000000000e+00 0.000000000000000000e+00 0.000000000000000000e+00 0.000000000000000000e+00 0.000000000000000000e+00 0.000000000000000000e+00 0.000000000000000000e+00 0.000000000000000000e+00 0.000000000000000000e+00 0.000000000000000000e+00 0.000000000000000000e+00 0.000000000000000000e+00 0.000000000000000000e+00 0.000000000000000000e+00 0.000000000000000000e+00 0.000000000000000000e+00 0.000000000000000000e+00 0.000000000000000000e+00 0.000000000000000000e+00 0.000000000000000000e+00 0.000000000000000000e+00 0.000000000000000000e+00 0.000000000000000000e+00 0.000000000000000000e+00 0.000000000000000000e+00 0.000000000000000000e+00 0.000000000000000000e+00 0.000000000000000000e+00 0.000000000000000000e+00 0.000000000000000000e+00 0.000000000000000000e+00 0.000000000000000000e+00 0.000000000000000000e+00 0.000000000000000000e+00 0.000000000000000000e+00 0.000000000000000000e+00 0.000000000000000000e+00 0.000000000000000000e+00 0.000000000000000000e+00 0.000000000000000000e+00 0.000000000000000000e+00 0.000000000000000000e+00 0.000000000000000000e+00 0.000000000000000000e+00 0.000000000000000000e+00 0.000000000000000000e+00 0.000000000000000000e+00 0.000000000000000000e+00 0.000000000000000000e+00 0.000000000000000000e+00 0.000000000000000000e+00 0.000000000000000000e+00 0.000000000000000000e+00 0.000000000000000000e+00 0.000000000000000000e+00 0.000000000000000000e+00 0.000000000000000000e+00 0.000000000000000000e+00 0.000000000000000000e+00 0.000000000000000000e+00
-5.943019548207330999e-04 -5.822958069093486181e-04 -5.702896619253381913e-04 -5.582835198083451519e-04 -5.462773804980128323e-04 -5.342712439339840228e-04 -5.222651100559043327e-04 -5.102589788034154680e-04 -4.982528501161565329e-04 -4.862467239337742208e-04 -4.742406001959090451e-04 -4.622344788422023867e-04 -4.502283598122985538e-04 -4.382222430458376262e-04 -4.262161284824651048e-04 -4.142100160618205815e-04 -4.022039057235478766e-04 -3.901977974072880998e-04 -3.781916910526834453e-04 -3.661855865993745348e-04 -3.541794839870047009e-04 -3.421733831552154327e-04 -3.301672840436487076e-04 -3.181611865919460689e-04 -3.061550907397499817e-04 -2.941489964267005259e-04 -2.821429035924404374e-04 -2.701368121766109347e-04 -2.581307221188537779e-04 -2.461246333588108359e-04 -2.341185458361221342e-04 -2.221124594904300294e-04 -2.101063742613765801e-04 -1.981002900886011343e-04 -1.860942069117469430e-04 -1.740881246704551973e-04 -1.620820433043666277e-04 -1.500759627531226962e-04 -1.380698829563644313e-04 -1.260638038537328074e-04 -1.140577253848698829e-04 -1.020516474894160222e-04 -9.004557010701294507e-05 -7.803949317730135462e-05 -6.603341663992246913e-05 -5.402734043451760167e-05 -4.202126450072737418e-05 -3.001518877819355375e-05 -1.800911320655742637e-05 -6.003037725459260740e-06 6.003037725459276833e-06 1.800911320655749074e-05 3.001518877819372316e-05 4.202126450072753004e-05 5.402734043451731707e-05 6.603341663992240136e-05 7.803949317730115133e-05 9.004557010701291797e-05 1.020516474894163340e-04 1.140577253848700049e-04 1.260638038537330785e-04 1.380698829563641332e-04 1.500759627531227233e-04 1.620820433043665735e-04 1.740881246704552516e-04 1.860942069117469972e-04 1.981002900886018932e-04 2.101063742613767699e-04 2.221124594904299210e-04 2.341185458361224052e-04 2.461246333588102938e-04 2.581307221188536153e-04 2.701368121766105010e-04 2.821429035924400038e-04 2.941489964267007427e-04 3.061550907397499275e-04 3.181611865919458521e-04 3.301672840436480029e-04 3.421733831552148906e-04 3.541794839870045924e-04 3.661855865993748601e-04 3.781916910526830116e-04 3.901977974072884251e-04 4.022039057235479850e-04 4.142100160618205273e-04 4.262161284824653217e-04 4.382222430458383852e-04 4.502283598122987706e-04 4.622344788422020614e-04 4.742406001959085030e-04 4.862467239337744376e-04 4.982528501161578340e-04 5.102589788034159017e-04 5.222651100559052000e-04 5.342712439339849986e-04 5.462773804980136996e-04 5.582835198083451519e-04 5.702896619253378660e-04 5.822958069093484013e-04 5.943019548207330999e-04
-6.192006058461003749e-19 -6.066914940220917213e-19 -5.941823827292132351e-19 -5.816732719565462417e-19 -5.691641616931298887e-19 -5.566550519279726049e-19 -5.441459426502678048e-19 -5.316368338489324358e-19 -5.191277255129657784e-19 -5.066186176315896548e-19 -4.941095101937284269e-19 -4.816004031884159460e-19 -4.690912966047695523e-19 -4.565821904317989266e-19 -4.440730846585914609e-19 -4.315639792741572694e-19 -4.190548742675623181e-19 -4.065457696278731508e-19 -3.940366653441076817e-19 -3.815275614053438659e-19 -3.690184578005819469e-19 -3.565093545189061390e-19 -3.440002515493334417e-19 -3.314911488809835062e-19 -3.189820465028605243e-19 -3.064729444039699400e-19 -2.939638425734736304e-19 -2.814547410002821392e-19 -2.689456396735197399e-19 -2.564365385822227875e-19 -2.439274377154475702e-19 -2.314183370622033837e-19 -2.189092366116166681e-19 -2.064001363526407709e-19 -1.938910362743819822e-19 -1.813819363659055218e-19 -1.688728366161891723e-19 -1.563637370143677277e-19 -1.438546375494267946e-19 -1.313455382104322669e-19 -1.188364389864325606e-19 -1.063273398664743344e-19 -9.381824083961577833e-20 -8.130914189490778812e-20 -6.880004302137022789e-20 -5.629094420806725816e-20 -4.378184544405102645e-20 -3.127274671837208538e-20 -1.876364802007287458e-20 -6.254549338197183356e-21 6.254549338197079536e-21 1.876364802007209518e-20 3.127274671837032195e-20 4.378184544405481211e-20 5.629094420806162482e-20 6.880004302136308992e-20 8.130914189489040660e-20 9.381824083961603111e-20 1.063273398664789085e-19 1.188364389864279143e-19 1.313455382104126706e-19 1.438546375494171168e-19 1.563637370143741073e-19 1.688728366162288465e-19 1.813819363659062199e-19 1.938910362743951266e-19 2.064001363526437561e-19 2.189092366115895125e-19 2.314183370621996281e-19 2.439274377154422739e-19 2.564365385822139282e-19 2.689456396735243140e-19 2.814547410002445354e-19 2.939638425734602452e-19 3.064729444039964215e-19 3.189820465028707318e-19 3.314911488809880321e-19 3.440002515493392195e-19 3.565093545189082094e-19 3.690184578005798284e-19 3.815275614053318288e-19 3.940366653441113892e-19 4.065457696279069509e-19 4.190548742675875477e-19 4.315639792741855324e-19 4.440730846585937720e-19 4.565821904317857340e-19 4.690912966047751375e-19 4.816004031883872497e-19 4.941095101937095528e-19 5.066186176315626918e-19 5.191277255129928378e-19 5.316368338489484210e-19 5.441459426502620270e-19 5.566550519280057309e-19 5.691641616931312368e-19 5.816732719565431602e-19 5.941823827292043758e-19 6.066914940220735212e-19 6.192006058461002787e-19
0.000000000000000000e+00 0.000000000000000000e+00 0.000000000000000000e+00 0.000000000000000000e+00 0.000000000000000000e+00 0.000000000000000000e+00 0.000000000000000000e+00 0.000000000000000000e+00 0.000000000000000000e+00 0.000000000000000000e+00 0.000000000000000000e+00 0.000000000000000000e+00 0.000000000000000000e+00 0.000000000000000000e+00 0.000000000000000000e+00 0.000000000000000000e+00 0.000000000000000000e+00 0.000000000000000000e+00 0.000000000000000000e+00 0.000000000000000000e+00 0.000000000000000000e+00 0.000000000000000000e+00 0.000000000000000000e+00 0.000000000000000000e+00 0.000000000000000000e+00 0.000000000000000000e+00 0.000000000000000000e+00 0.000000000000000000e+00 0.000000000000000000e+00 0.000000000000000000e+00 0.000000000000000000e+00 0.000000000000000000e+00 0.000000000000000000e+00 0.000000000000000000e+00 0.000000000000000000e+00 0.000000000000000000e+00 0.000000000000000000e+00 0.000000000000000000e+00 0.000000000000000000e+00 0.000000000000000000e+00 0.000000000000000000e+00 0.000000000000000000e+00 0.000000000000000000e+00 0.000000000000000000e+00 0.000000000000000000e+00 0.000000000000000000e+00 0.000000000000000000e+00 0.000000000000000000e+00 0.000000000000000000e+00 0.000000000000000000e+00 0.000000000000000000e+00 0.000000000000000000e+00 0.000000000000000000e+00 0.000000000000000000e+00 0.000000000000000000e+00 0.000000000000000000e+00 0.000000000000000000e+00 0.000000000000000000e+00 0.000000000000000000e+00 0.000000000000000000e+00 0.000000000000000000e+00 0.000000000000000000e+00 0.000000000000000000e+00 0.000000000000000000e+00 0.000000000000000000e+00 0.000000000000000000e+00 0.000000000000000000e+00 0.000000000000000000e+00 0.000000000000000000e+00 0.000000000000000000e+00 0.000000000000000000e+00 0.000000000000000000e+00 0.000000000000000000e+00 0.000000000000000000e+00 0.000000000000000000e+00 0.000000000000000000e+00 0.000000000000000000e+00 0.000000000000000000e+00 0.000000000000000000e+00 0.000000000000000000e+00 0.000000000000000000e+00 0.000000000000000000e+00 0.000000000000000000e+00 0.000000000000000000e+00 0.000000000000000000e+00 0.000000000000000000e+00 0.000000000000000000e+00 0.000000000000000000e+00 0.000000000000000000e+00 0.000000000000000000e+00 0.000000000000000000e+00 0.000000000000000000e+00 0.000000000000000000e+00 0.000000000000000000e+00 0.000000000000000000e+00 0.000000000000000000e+00 0.000000000000000000e+00 0.000000000000000000e+00 0.000000000000000000e+00 0.000000000000000000e+00
3.301607152317593673e-03 3.234908431406655505e-03 3.168209685180772318e-03 3.101510914161878605e-03 3.034812118871933143e-03 2.968113299832876931e-03 2.901414457566654434e-03 2.834715592595210987e-03 2.768016705440516211e-03 2.701317796624503297e-03 2.634618866669127552e-03 2.567919916096349925e-03 2.501220945428112279e-03 2.434521955186375562e-03 2.367822945893082506e-03 2.301123918070198827e-03 2.234424872239666390e-03 2.167725808923451347e-03 2.101026728643505970e-03 2.034327631921787737e-03 1.967628519280250222e-03 1.900929391240853070e-03 1.834230248325547253e-03 1.767531091056302392e-03 1.700831919955063604e-03 1.634132735543799208e-03 1.567433538344464297e-03 1.500734328879017648e-03 1.434035107669419775e-03 1.367335875237625986e-03 1.300636632105607203e-03 1.233937378795316783e-03 1.167238115828715022e-03 1.100538843727767854e-03 1.033839563014432540e-03 9.671402742106707849e-04 9.004409778384452707e-04 8.337416744197186785e-04 7.670423644764534730e-04 7.003430485306122270e-04 6.336437271041551285e-04 5.669444007190473523e-04 5.002450698972512547e-04 4.335457351607293003e-04 3.668463970314464473e-04 3.001470560313636423e-04 2.334477126824467653e-04 1.667483675066571422e-04 1.000490210259568854e-04 3.334967376231306731e-05 -3.334967376231328415e-05 -1.000490210259568854e-04 -1.667483675066565188e-04 -2.334477126824463587e-04 -3.001470560313645639e-04 -3.668463970314463389e-04 -4.335457351607300050e-04 -5.002450698972512547e-04 -5.669444007190464849e-04 -6.336437271041544779e-04 -7.003430485306111428e-04 -7.670423644764540151e-04 -8.337416744197195459e-04 -9.004409778384484149e-04 -9.671402742106706765e-04 -1.033839563014433190e-03 -1.100538843727764384e-03 -1.167238115828713721e-03 -1.233937378795317650e-03 -1.300636632105607203e-03 -1.367335875237628371e-03 -1.434035107669420208e-03 -1.500734328879019600e-03 -1.567433538344466032e-03 -1.634132735543798991e-03 -1.700831919955065339e-03 -1.767531091056303693e-03 -1.834230248325552240e-03 -1.900929391240854588e-03 -1.967628519280250655e-03 -2.034327631921786436e-03 -2.101026728643508139e-03 -2.167725808923451347e-03 -2.234424872239669426e-03 -2.301123918070197092e-03 -2.367822945893083373e-03 -2.434521955186371659e-03 -2.501220945428111846e-03 -2.567919916096352093e-03 -2.634618866669128420e-03 -2.701317796624501996e-03 -2.768016705440513175e-03 -2.834715592595209253e-03 -2.901414457566648796e-03 -2.968113299832871727e-03 -3.034812118871931409e-03 -3.101510914161878171e-03 -3.168209685180772752e-03 -3.234908431406655939e-03 -3.301607152317594107e-03
2.759429809850260433e-18 2.703684065647188977e-18 2.647938302307844556e-18 2.592192520226702689e-18 2.536446719798342897e-18 2.480700901417414801e-18 2.424955065478116589e-18 2.369209212375332846e-18 2.313463342503749405e-18 2.257717456257476627e-18 2.201971554031410655e-18 2.146225636220130238e-18 2.090479703218017297e-18 2.034733755419729157e-18 1.978987793219745960e-18 1.923241817012706160e-18 1.867495827193140357e-18 1.811749824155542560e-18 1.756003808294580496e-18 1.700257780004711965e-18 1.644511739680648029e-18 1.588765687716848607e-18 1.533019624507959084e-18 1.477273550448355603e-18 1.421527465932722839e-18 1.365781371355732371e-18 1.310035267111648828e-18 1.254289153595404946e-18 1.198543031201358763e-18 1.142796900324117532e-18 1.087050761358215705e-18 1.031304614698330447e-18 9.755584607388093953e-19 9.198122998744808995e-19 8.640661324997560568e-19 8.083199590091519866e-19 7.525737797974224089e-19 6.968275952589127464e-19 6.410814057883434969e-19 5.853352117802478613e-19 5.295890136291833073e-19 4.738428117297268508e-19 4.180966064764236335e-19 3.623503982638216861e-19 3.066041874865727986e-19 2.508579745392004943e-19 1.951117598162605315e-19 1.393655437123191892e-19 8.361932662195514416e-20 2.787310893975156938e-20 -2.787310893975171984e-20 -8.361932662195733491e-20 -1.393655437123230410e-19 -1.951117598162512148e-19 -2.508579745392149388e-19 -3.066041874865920579e-19 -3.623503982638663677e-19 -4.180966064764201669e-19 -4.738428117297153915e-19 -5.295890136291973666e-19 -5.853352117803006318e-19 -6.410814057883696896e-19 -6.968275952588935834e-19 -7.525737797973192753e-19 -8.083199590091489051e-19 -8.640661324997200419e-19 -9.198122998744730032e-19 -9.755584607388802695e-19 -1.031304614698339114e-18 -1.087050761358229379e-18 -1.142796900324141414e-18 -1.198543031201349326e-18 -1.254289153595503554e-18 -1.310035267111682917e-18 -1.365781371355658607e-18 -1.421527465932696839e-18 -1.477273550448346166e-18 -1.533019624507943870e-18 -1.588765687716843022e-18 -1.644511739680654385e-18 -1.700257780004745284e-18 -1.756003808294568170e-18 -1.811749824155457819e-18 -1.867495827193073720e-18 -1.923241817012634130e-18 -1.978987793219736716e-18 -2.034733755419768831e-18 -2.090479703217993415e-18 -2.146225636220203038e-18 -2.201971554031460344e-18 -2.257717456257553279e-18 -2.313463342503679686e-18 -2.369209212375291632e-18 -2.424955065478130456e-18 -2.480700901417330831e-18 -2.536446719798338660e-18 -2.592192520226708467e-18 -2.647938302307872289e-18 -2.703684065647237896e-18 -2.759429809850260819e-18
0.000000000000000000e+00 0.000000000000000000e+00 0.000000000000000000e+00 0.000000000000000000e+00 0.000000000000000000e+00 0.000000000000000000e+00 0.000000000000000000e+00 0.000000000000000000e+00 0.000000000000000000e+00 0.000000000000000000e+00 0.000000000000000000e+00 0.000000000000000000e+00 0.000000000000000000e+00 0.000000000000000000e+00 0.000000000000000000e+00 0.000000000000000000e+00 0.000000000000000000e+00 0.000000000000000000e+00 0.000000000000000000e+00 0.000000000000000000e+00 0.000000000000000000e+00 0.000000000000000000e+00 0.000000000000000000e+00 0.000000000000000000e+00 0.000000000000000000e+00 0.000000000000000000e+00 0.000000000000000000e+00 0.000000000000000000e+00 0.000000000000000000e+00 0.000000000000000000e+00 0.000000000000000000e+00 0.000000000000000000e+00 0.000000000000000000e+00 0.000000000000000000e+00 0.000000000000000000e+00 0.000000000000000000e+00 0.000000000000000000e+00 0.000000000000000000e+00 0.000000000000000000e+00 0.000000000000000000e+00 0.000000000000000000e+00 0.000000000000000000e+00 0.000000000000000000e+00 0.000000000000000000e+00 0.000000000000000000e+00 0.000000000000000000e+00 0.000000000000000000e+00 0.000000000000000000e+00 0.000000000000000000e+00 0.000000000000000000e+00 0.000000000000000000e+00 0.000000000000000000e+00 0.000000000000000000e+00 0.000000000000000000e+00 0.000000000000000000e+00 0.000000000000000000e+00 0.000000000000000000e+00 0.000000000000000000e+00 0.000000000000000000e+00 0.000000000000000000e+00 0.000000000000000000e+00 0.000000000000000000e+00 0.000000000000000000e+00 0.000000000000000000e+00 0.000000000000000000e+00 0.000000000000000000e+00 0.000000000000000000e+00 0.000000000000000000e+00 0.000000000000000000e+00 0.000000000000000000e+00 0.000000000000000000e+00 0.000000000000000000e+00 0.000000000000000000e+00 0.000000000000000000e+00 0.000000000000000000e+00 0.000000000000000000e+00 0.000000000000000000e+00 0.000000000000000000e+00 0.000000000000000000e+00 0.000000000000000000e+00 0.000000000000000000e+00 0.000000000000000000e+00 0.000000000000000000e+00 0.000000000000000000e+00 0.000000000000000000e+00 0.000000000000000000e+00 0.000000000000000000e+00 0.000000000000000000e+00 0.000000000000000000e+00 0.000000000000000000e+00 0.000000000000000000e+00 0.000000000000000000e+00 0.000000000000000000e+00 0.000000000000000000e+00 0.000000000000000000e+00 0.000000000000000000e+00 0.000000000000000000e+00 0.000000000000000000e+00 0.000000000000000000e+00 0.000000000000000000e+00
