# 
#                 ----------------------------------------------------
#                 Data from a 3D direct N-body simulation. 
# 
#                 rows are i-particle; 
#                 coumns are :mass, tag, x ,y, z, vx, vy, vz, ax, ay, az
# 
#                 NTHU, Computational Physics Lab
# 
#                 ----------------------------------------------------
#                 Time = 0.7
1.000000000000000000e+00 2.000000000000000000e+00 3.000000000000000000e+00 4.000000000000000000e+00 5.000000000000000000e+00 6.000000000000000000e+00 7.000000000000000000e+00 8.000000000000000000e+00 9.000000000000000000e+00 1.000000000000000000e+01 1.100000000000000000e+01 1.200000000000000000e+01 1.300000000000000000e+01 1.400000000000000000e+01 1.500000000000000000e+01 1.600000000000000000e+01 1.700000000000000000e+01 1.800000000000000000e+01 1.900000000000000000e+01 2.000000000000000000e+01 2.100000000000000000e+01 2.200000000000000000e+01 2.300000000000000000e+01 2.400000000000000000e+01 2.500000000000000000e+01 2.600000000000000000e+01 2.700000000000000000e+01 2.800000000000000000e+01 2.900000000000000000e+01 3.000000000000000000e+01 3.100000000000000000e+01 3.200000000000000000e+01 3.300000000000000000e+01 3.400000000000000000e+01 3.500000000000000000e+01 3.600000000000000000e+01 3.700000000000000000e+01 3.800000000000000000e+01 3.900000000000000000e+01 4.000000000000000000e+01 4.100000000000000000e+01 4.200000000000000000e+01 4.300000000000000000e+01 4.400000000000000000e+01 4.500000000000000000e+01 4.600000000000000000e+01 4.700000000000000000e+01 4.800000000000000000e+01 4.900000000000000000e+01 5.000000000000000000e+01 5.100000000000000000e+01 5.200000000000000000e+01 5.300000000000000000e+01 5.400000000000000000e+01 5.500000000000000000e+01 5.600000000000000000e+01 5.700000000000000000e+01 5.800000000000000000e+01 5.900000000000000000e+01 6.000000000000000000e+01 6.100000000000000000e+01 6.200000000000000000e+01 6.300000000000000000e+01 6.400000000000000000e+01 6.500000000000000000e+01 6.600000000000000000e+01 6.700000000000000000e+01 6.800000000000000000e+01 6.900000000000000000e+01 7.000000000000000000e+01 7.100000000000000000e+01 7.200000000000000000e+01 7.300000000000000000e+01 7.400000000000000000e+01 7.500000000000000000e+01 7.600000000000000000e+01 7.700000000000000000e+01 7.800000000000000000e+01 7.900000000000000000e+01 8.000000000000000000e+01 8.100000000000000000e+01 8.200000000000000000e+01 8.300000000000000000e+01 8.400000000000000000e+01 8.500000000000000000e+01 8.600000000000000000e+01 8.700000000000000000e+01 8.800000000000000000e+01 8.900000000000000000e+01 9.000000000000000000e+01 9.100000000000000000e+01 9.200000000000000000e+01 9.300000000000000000e+01 9.400000000000000000e+01 9.500000000000000000e+01 9.600000000000000000e+01 9.700000000000000000e+01 9.800000000000000000e+01 9.900000000000000000e+01 1.000000000000000000e+02
1.000000000000000000e+00 1.000000000000000000e+00 1.000000000000000000e+00 1.000000000000000000e+00 1.000000000000000000e+00 1.000000000000000000e+00 1.000000000000000000e+00 1.000000000000000000e+00 1.000000000000000000e+00 1.000000000000000000e+00 1.000000000000000000e+00 1.000000000000000000e+00 1.000000000000000000e+00 1.000000000000000000e+00 1.000000000000000000e+00 1.000000000000000000e+00 1.000000000000000000e+00 1.000000000000000000e+00 1.000000000000000000e+00 1.000000000000000000e+00 1.000000000000000000e+00 1.000000000000000000e+00 1.000000000000000000e+00 1.000000000000000000e+00 1.000000000000000000e+00 1.000000000000000000e+00 1.000000000000000000e+00 1.000000000000000000e+00 1.000000000000000000e+00 1.000000000000000000e+00 1.000000000000000000e+00 1.000000000000000000e+00 1.000000000000000000e+00 1.000000000000000000e+00 1.000000000000000000e+00 1.000000000000000000e+00 1.000000000000000000e+00 1.000000000000000000e+00 1.000000000000000000e+00 1.000000000000000000e+00 1.000000000000000000e+00 1.000000000000000000e+00 1.000000000000000000e+00 1.000000000000000000e+00 1.000000000000000000e+00 1.000000000000000000e+00 1.000000000000000000e+00 1.000000000000000000e+00 1.000000000000000000e+00 1.000000000000000000e+00 1.000000000000000000e+00 1.000000000000000000e+00 1.000000000000000000e+00 1.000000000000000000e+00 1.000000000000000000e+00 1.000000000000000000e+00 1.000000000000000000e+00 1.000000000000000000e+00 1.000000000000000000e+00 1.000000000000000000e+00 1.000000000000000000e+00 1.000000000000000000e+00 1.000000000000000000e+00 1.000000000000000000e+00 1.000000000000000000e+00 1.000000000000000000e+00 1.000000000000000000e+00 1.000000000000000000e+00 1.000000000000000000e+00 1.000000000000000000e+00 1.000000000000000000e+00 1.000000000000000000e+00 1.000000000000000000e+00 1.000000000000000000e+00 1.000000000000000000e+00 1.000000000000000000e+00 1.000000000000000000e+00 1.000000000000000000e+00 1.000000000000000000e+00 1.000000000000000000e+00 1.000000000000000000e+00 1.000000000000000000e+00 1.000000000000000000e+00 1.000000000000000000e+00 1.000000000000000000e+00 1.000000000000000000e+00 1.000000000000000000e+00 1.000000000000000000e+00 1.000000000000000000e+00 1.000000000000000000e+00 1.000000000000000000e+00 1.000000000000000000e+00 1.000000000000000000e+00 1.000000000000000000e+00 1.000000000000000000e+00 1.000000000000000000e+00 1.000000000000000000e+00 1.000000000000000000e+00 1.000000000000000000e+00 1.000000000000000000e+00
-2.718370927591318435e-04 -2.663454223269244884e-04 -2.608537526289562460e-04 -2.553620836500888349e-04 -2.498704153751837029e-04 -2.443787477891018098e-04 -2.388870808767057418e-04 -2.333954146228561333e-04 -2.279037490124129683e-04 -2.224120840302393752e-04 -2.169204196611955275e-04 -2.114287558901423853e-04 -2.059370927019417484e-04 -2.004454300814540347e-04 -1.949537680135416404e-04 -1.894621064830646581e-04 -1.839704454748848335e-04 -1.784787849738629910e-04 -1.729871249648603343e-04 -1.674954654327374709e-04 -1.620038063623559569e-04 -1.565121477385767249e-04 -1.510204895462608160e-04 -1.455288317702694071e-04 -1.400371743954635932e-04 -1.345455174067039007e-04 -1.290538607888517771e-04 -1.235622045267680197e-04 -1.180705486053137103e-04 -1.125788930093499576e-04 -1.070872377237373015e-04 -1.015955827333369320e-04 -9.610392802301005299e-05 -9.061227357761694658e-05 -8.512061938201920957e-05 -7.962896542107769334e-05 -7.413731167965316796e-05 -6.864565814260667454e-05 -6.315400479479891540e-05 -5.766235162109089099e-05 -5.217069860634362889e-05 -4.667904573541788562e-05 -4.118739299317473616e-05 -3.569574036447485573e-05 -3.020408783417919058e-05 -2.471243538714869374e-05 -1.922078300824409461e-05 -1.372913068232652241e-05 -8.237478394256845469e-06 -2.745826128895747878e-06 2.745826128895749995e-06 8.237478394256869186e-06 1.372913068232655460e-05 1.922078300824416237e-05 2.471243538714859209e-05 3.020408783417916009e-05 3.569574036447476764e-05 4.118739299317469550e-05 4.667904573541798726e-05 5.217069860634366955e-05 5.766235162109094520e-05 6.315400479479883408e-05 6.864565814260670164e-05 7.413731167965320861e-05 7.962896542107776110e-05 8.512061938201926378e-05 9.061227357761717698e-05 9.610392802301009365e-05 1.015955827333369049e-04 1.070872377237373828e-04 1.125788930093498221e-04 1.180705486053136696e-04 1.235622045267678842e-04 1.290538607888516687e-04 1.345455174067040362e-04 1.400371743954636474e-04 1.455288317702693257e-04 1.510204895462606534e-04 1.565121477385765893e-04 1.620038063623559297e-04 1.674954654327375793e-04 1.729871249648602259e-04 1.784787849738631537e-04 1.839704454748848877e-04 1.894621064830647123e-04 1.949537680135416675e-04 2.004454300814542786e-04 2.059370927019417484e-04 2.114287558901422226e-04 2.169204196611952836e-04 2.224120840302393752e-04 2.279037490124134562e-04 2.333954146228561875e-04 2.388870808767059315e-04 2.443787477891021351e-04 2.498704153751839198e-04 2.553620836500888891e-04 2.608537526289561375e-04 2.663454223269243800e-04 2.718370927591318435e-04
-2.555181891466714870e-19 -2.503562064002601628e-19 -2.451942236004087605e-19 -2.400322407482299380e-19 -2.348702578448222455e-19 -2.297082748912737855e-19 -2.245462918887346270e-19 -2.193843088382623944e-19 -2.142223257409425899e-19 -2.090603425979341901e-19 -2.038983594102983102e-19 -1.987363761791311172e-19 -1.935743929055574025e-19 -1.884124095906654607e-19 -1.832504262355709110e-19 -1.780884428413618556e-19 -1.729264594091462821e-19 -1.677644759400312871e-19 -1.626024924351093303e-19 -1.574405088954907104e-19 -1.522785253222622778e-19 -1.471165417165370514e-19 -1.419545580794065040e-19 -1.367925744119957156e-19 -1.316305907153920423e-19 -1.264686069906828640e-19 -1.213066232390071998e-19 -1.161446394614215185e-19 -1.109826556590522967e-19 -1.058206718329976394e-19 -1.006586879843616340e-19 -9.549670411423330964e-20 -9.033472022373979283e-20 -8.517273631395179224e-20 -8.001075238599010281e-20 -7.484876844096183333e-20 -6.968678447994551659e-20 -6.452480050407161330e-20 -5.936281651442071460e-20 -5.420083251210080799e-20 -4.903884849821329066e-20 -4.387686447385955983e-20 -3.871488044014477428e-20 -3.355289639817097520e-20 -2.839091234903090515e-20 -2.322892829383139006e-20 -1.806694423367540096e-20 -1.290496016966555081e-20 -7.742976102901470378e-21 -2.580992034483519424e-21 2.580992034483484817e-21 7.742976102901220609e-21 1.290496016966492940e-20 1.806694423367667087e-20 2.322892829382952130e-20 2.839091234902858802e-20 3.355289639816519741e-20 3.871488044014474419e-20 4.387686447386112465e-20 4.903884849821182816e-20 5.420083251209436214e-20 5.936281651441754886e-20 6.452480050407362349e-20 6.968678447995866106e-20 7.484876844096203796e-20 8.001075238599435189e-20 8.517273631395273113e-20 9.033472022373083725e-20 9.549670411423205778e-20 1.006586879843599006e-19 1.058206718329947264e-19 1.109826556590538856e-19 1.161446394614091204e-19 1.213066232390027701e-19 1.264686069906915066e-19 1.316305907153954608e-19 1.367925744119973045e-19 1.419545580794083818e-19 1.471165417165377737e-19 1.522785253222616278e-19 1.574405088954867622e-19 1.626024924351103896e-19 1.677644759400426019e-19 1.729264594091546358e-19 1.780884428413713408e-19 1.832504262355715610e-19 1.884124095906612959e-19 1.935743929055588950e-19 1.987363761791216320e-19 2.038983594102920750e-19 2.090603425979254753e-19 2.142223257409515214e-19 2.193843088382676425e-19 2.245462918887326529e-19 2.297082748912848596e-19 2.348702578448227270e-19 2.400322407482288787e-19 2.451942236004059679e-19 2.503562064002541443e-19 2.555181891466714870e-19
0.000000000000000000e+00 0.000000000000000000e+00 0.000000000000000000e+00 0.000000000000000000e+00 0.000000000000000000e+00 0.000000000000000000e+00 0.000000000000000000e+00 0.000000000000000000e+00 0.000000000000000000e+00 0.000000000000000000e+00 0.000000000000000000e+00 0.000000000000000000e+00 0.000000000000000000e+00 0.000000000000000000e+00 0.000000000000000000e+00 0.000000000000000000e+00 0.000000000000000000e+00 0.000000000000000000e+00 0.000000000000000000e+00 0.000000000000000000e+00 0.000000000000000000e+00 0.000000000000000000e+00 0.000000000000000000e+00 0.000000000000000000e+00 0.000000000000000000e+00 0.000000000000000000e+00 0.000000000000000000e+00 0.000000000000000000e+00 0.000000000000000000e+00 0.000000000000000000e+00 0.000000000000000000e+00 0.000000000000000000e+00 0.000000000000000000e+00 0.000000000000000000e+00 0.000000000000000000e+00 0.000000000000000000e+00 0.000000000000000000e+00 0.000000000000000000e+00 0.000000000000000000e+00 0.000000000000000000e+00 0.000000000000000000e+00 0.000000000000000000e+00 0.000000000000000000e+00 0.000000000000000000e+00 0.000000000000000000e+00 0.000000000000000000e+00 0.000000000000000000e+00 0.000000000000000000e+00 0.000000000000000000e+00 0.000000000000000000e+00 0.000000000000000000e+00 0.000000000000000000e+00 0.000000000000000000e+00 0.000000000000000000e+00 0.000000000000000000e+00 0.000000000000000000e+00 0.000000000000000000e+00 0.000000000000000000e+00 0.000000000000000000e+00 0.000000000000000000e+00 0.000000000000000000e+00 0.000000000000000000e+00 0.000000000000000000e+00 0.000000000000000000e+00 0.000000000000000000e+00 0.000000000000000000e+00 0.000000000000000000e+00 0.000000000000000000e+00 0.000000000000000000e+00 0.000000000000000000e+00 0.000000000000000000e+00 0.000000000000000000e+00 0.000000000000000000e+00 0.000000000000000000e+00 0.000000000000000000e+00 0.000000000000000000e+00 0.000000000000000000e+00 0.000000000000000000e+00 0.000000000000000000e+00 0.000000000000000000e+00 0.000000000000000000e+00 0.000000000000000000e+00 0.000000000000000000e+00 0.000000000000000000e+00 0.000000000000000000e+00 0.000000000000000000e+00 0.000000000000000000e+00 0.000000000000000000e+00 0.000000000000000000e+00 0.000000000000000000e+00 0.000000000000000000e+00 0.000000000000000000e+00 0.000000000000000000e+00 0.000000000000000000e+00 0.000000000000000000e+00 0.000000000000000000e+00 0.000000000000000000e+00 0.000000000000000000e+00 0.000000000000000000e+00 0.000000000000000000e+00
-1.217730771785070082e-08 -1.181379080119563524e-08 -1.145746838875603968e-08 -1.110819214118329706e-08 -1.076581372086351379e-08 -1.043018479105015800e-08 -1.010115701781562347e-08 -9.778582062570234656e-09 -9.462311579026480568e-09 -9.152197237973034444e-09 -8.848090697676034427e-09 -8.549843616835299531e-09 -8.257307659571659630e-09 -7.970334485235455041e-09 -7.688775756754893248e-09 -7.412483132450322504e-09 -7.141308276442572683e-09 -6.875102846564101061e-09 -6.613718503357870343e-09 -6.357006906174220845e-09 -6.104819716044006250e-09 -5.857008592859667961e-09 -5.613425197109958575e-09 -5.373921187819957757e-09 -5.138348225044737233e-09 -4.906557966996225040e-09 -4.678402074163173774e-09 -4.453732205841713643e-09 -4.232400021924286049e-09 -4.014257180948079679e-09 -3.799155339959505231e-09 -3.586946160368887151e-09 -3.377481301092884886e-09 -3.170612418581597938e-09 -2.966191173865879993e-09 -2.764069225537129845e-09 -2.564098231753065421e-09 -2.366129851050875407e-09 -2.170015741506962567e-09 -1.975607561766935805e-09 -1.782756970964295001e-09 -1.591315626660446889e-09 -1.401135187826261022e-09 -1.212067312212879513e-09 -1.023963657923810180e-09 -8.366758839231463150e-10 -6.500556474605865241e-10 -4.639546076865713482e-10 -2.782244230739149699e-10 -9.271675063514677080e-11 9.271675062244127659e-11 2.782244231755589235e-10 4.639546078898592555e-10 6.500556477384133308e-10 8.366758835165705004e-10 1.023963657856047545e-09 1.212067311928276443e-09 1.401135187717840805e-09 1.591315626972155013e-09 1.782756971221793017e-09 1.975607562227721728e-09 2.170015741181701915e-09 2.366129851077980462e-09 2.564098231400699715e-09 2.764069225753970280e-09 2.966191173865879993e-09 3.170612419476064731e-09 3.377481301418145537e-09 3.586946160206256826e-09 3.799155340366081046e-09 4.014257180297558375e-09 4.232400021436395071e-09 4.453732205245402448e-09 4.678402073837913122e-09 4.906557967050435148e-09 5.138348225044737233e-09 5.373921187277856670e-09 5.613425195808915968e-09 5.857008592317566875e-09 6.104819715935586033e-09 6.357006906716321931e-09 6.613718502761559148e-09 6.875102846943571822e-09 7.141308276496782792e-09 7.412483133046633699e-09 7.688775757025943791e-09 7.970334486319657213e-09 8.257307659896920282e-09 8.549843616130568119e-09 8.848090697242353558e-09 9.152197238460925421e-09 9.462311580978044478e-09 9.778582062678654874e-09 1.010115701922508630e-08 1.043018479267646126e-08 1.076581372205613618e-08 1.110819214074961619e-08 1.145746838832235881e-08 1.181379080097879480e-08 1.217730771785070082e-08
-7.631741065877821584e-20 -7.477557620463308955e-20 -7.323374594935112420e-20 -7.169191980640009480e-20 -7.015009768919317625e-20 -6.860827951110868410e-20 -6.706646518575200106e-20 -6.552465462638675355e-20 -6.398284774637613859e-20 -6.244104445936376858e-20 -6.089924467861808478e-20 -5.935744831754841023e-20 -5.781565528966681631e-20 -5.627386550835142600e-20 -5.473207888707271060e-20 -5.319029533921206715e-20 -5.164851477821372619e-20 -5.010673711752962192e-20 -4.856496227054216252e-20 -4.702319015071825632e-20 -4.548142067141854847e-20 -4.393965374611432881e-20 -4.239788928819176105e-20 -4.085612721116522771e-20 -3.931436742840307766e-20 -3.777260985327727089e-20 -3.623085439935568261e-20 -3.468910097988778368e-20 -3.314734950839522698e-20 -3.160559989828632444e-20 -3.006385206299702506e-20 -2.852210591590111848e-20 -2.698036137052331500e-20 -2.543861834016689114e-20 -2.389687673832916086e-20 -2.235513647845668985e-20 -2.081339747388465284e-20 -1.927165963814558424e-20 -1.772992288458592546e-20 -1.618818712665089406e-20 -1.464645227776538902e-20 -1.310471825135128803e-20 -1.156298496084480493e-20 -1.002125231967460630e-20 -8.479520241227830872e-21 -6.937788638948967949e-21 -5.396057426267195700e-21 -3.854326516608827470e-21 -2.312595823391115706e-21 -7.708652600320019754e-22 7.708652600318816047e-22 2.312595823390161769e-21 3.854326516606702929e-21 5.396057426271908210e-21 6.937788638941920249e-21 8.479520241218742890e-21 1.002125231965279515e-20 1.156298496084533456e-20 1.310471825135700564e-20 1.464645227775937049e-20 1.618818712662580882e-20 1.772992288457350321e-20 1.927165963815379351e-20 2.081339747393460665e-20 2.235513647845770096e-20 2.389687673834594052e-20 2.543861834017043004e-20 2.698036137048915382e-20 2.852210591589661662e-20 3.006385206299028431e-20 3.160559989827496145e-20 3.314734950840090847e-20 3.468910097984045395e-20 3.623085439933883073e-20 3.777260985331126355e-20 3.931436742841578880e-20 4.085612721117047587e-20 4.239788928819903144e-20 4.393965374611702511e-20 4.548142067141580402e-20 4.702319015070289703e-20 4.856496227054712179e-20 5.010673711757204053e-20 5.164851477824598551e-20 5.319029533924735982e-20 5.473207888707627357e-20 5.627386550833418892e-20 5.781565528967471262e-20 5.935744831751229904e-20 6.089924467859410695e-20 6.244104445932939073e-20 6.398284774640993866e-20 6.552465462640707211e-20 6.706646518574439364e-20 6.860827951114999530e-20 7.015009768919452440e-20 7.169191980639662813e-20 7.323374594933976121e-20 7.477557620460978580e-20 7.631741065877821584e-20
0.000000000000000000e+00 0.000000000000000000e+00 0.000000000000000000e+00 0.000000000000000000e+00 0.000000000000000000e+00 0.000000000000000000e+00 0.000000000000000000e+00 0.000000000000000000e+00 0.000000000000000000e+00 0.000000000000000000e+00 0.000000000000000000e+00 0.000000000000000000e+00 0.000000000000000000e+00 0.000000000000000000e+00 0.000000000000000000e+00 0.000000000000000000e+00 0.000000000000000000e+00 0.000000000000000000e+00 0.000000000000000000e+00 0.000000000000000000e+00 0.000000000000000000e+00 0.000000000000000000e+00 0.000000000000000000e+00 0.000000000000000000e+00 0.000000000000000000e+00 0.000000000000000000e+00 0.000000000000000000e+00 0.000000000000000000e+00 0.000000000000000000e+00 0.000000000000000000e+00 0.000000000000000000e+00 0.000000000000000000e+00 0.000000000000000000e+00 0.000000000000000000e+00 0.000000000000000000e+00 0.000000000000000000e+00 0.000000000000000000e+00 0.000000000000000000e+00 0.000000000000000000e+00 0.000000000000000000e+00 0.000000000000000000e+00 0.000000000000000000e+00 0.000000000000000000e+00 0.000000000000000000e+00 0.000000000000000000e+00 0.000000000000000000e+00 0.000000000000000000e+00 0.000000000000000000e+00 0.000000000000000000e+00 0.000000000000000000e+00 0.000000000000000000e+00 0.000000000000000000e+00 0.000000000000000000e+00 0.000000000000000000e+00 0.000000000000000000e+00 0.000000000000000000e+00 0.000000000000000000e+00 0.000000000000000000e+00 0.000000000000000000e+00 0.000000000000000000e+00 0.000000000000000000e+00 0.000000000000000000e+00 0.000000000000000000e+00 0.000000000000000000e+00 0.000000000000000000e+00 0.000000000000000000e+00 0.000000000000000000e+00 0.000000000000000000e+00 0.000000000000000000e+00 0.000000000000000000e+00 0.000000000000000000e+00 0.000000000000000000e+00 0.000000000000000000e+00 0.000000000000000000e+00 0.000000000000000000e+00 0.000000000000000000e+00 0.000000000000000000e+00 0.000000000000000000e+00 0.000000000000000000e+00 0.000000000000000000e+00 0.000000000000000000e+00 0.000000000000000000e+00 0.000000000000000000e+00 0.000000000000000000e+00 0.000000000000000000e+00 0.000000000000000000e+00 0.000000000000000000e+00 0.000000000000000000e+00 0.000000000000000000e+00 0.000000000000000000e+00 0.000000000000000000e+00 0.000000000000000000e+00 0.000000000000000000e+00 0.000000000000000000e+00 0.000000000000000000e+00 0.000000000000000000e+00 0.000000000000000000e+00 0.000000000000000000e+00 0.000000000000000000e+00 0.000000000000000000e+00
6.603221170294518334e-03 6.469823523517487587e-03 6.336425830166934024e-03 6.203028091203115560e-03 6.069630307586318732e-03 5.936232480276785843e-03 5.802834610234779145e-03 5.669436698420546143e-03 5.536038745794407204e-03 5.402640753316586414e-03 5.269242721947346893e-03 5.135844652646991658e-03 5.002446546375765614e-03 4.869048404093950962e-03 4.735650226761814290e-03 4.602252015339631727e-03 4.468853770787663791e-03 4.335455494066203959e-03 4.202057186135516216e-03 4.068658847955875825e-03 3.935260480487569323e-03 3.801862084690866769e-03 3.668463661526041690e-03 3.535065211953377154e-03 3.401666736933158831e-03 3.268268237425660683e-03 3.134869714391162743e-03 3.001471168789948078e-03 2.868072601582288914e-03 2.734674013728479163e-03 2.601275406188809265e-03 2.467876779923541472e-03 2.334478135892974898e-03 2.201079475057387408e-03 2.067680798377064238e-03 1.934282106812291926e-03 1.800883401323354191e-03 1.667484682870537353e-03 1.534085952414129036e-03 1.400687210914414475e-03 1.267288459331678474e-03 1.133889698626210822e-03 1.000490929758296541e-03 8.670921536882224929e-04 7.336933713762809617e-04 6.002945837827523053e-04 4.668957918679300548e-04 3.334969965920992299e-04 2.000981989155467479e-04 6.669939979856389007e-05 -6.669939979856390362e-05 -2.000981989155463955e-04 -3.334969965920985793e-04 -4.668957918679286453e-04 -6.002945837827537148e-04 -7.336933713762803112e-04 -8.670921536882228182e-04 -1.000490929758296324e-03 -1.133889698626210822e-03 -1.267288459331677173e-03 -1.400687210914412740e-03 -1.534085952414129470e-03 -1.667484682870537353e-03 -1.800883401323356793e-03 -1.934282106812291926e-03 -2.067680798377066840e-03 -2.201079475057384372e-03 -2.334478135892973164e-03 -2.467876779923541906e-03 -2.601275406188807964e-03 -2.734674013728479597e-03 -2.868072601582292384e-03 -3.001471168789949812e-03 -3.134869714391161875e-03 -3.268268237425661984e-03 -3.401666736933158398e-03 -3.535065211953380190e-03 -3.668463661526047328e-03 -3.801862084690866769e-03 -3.935260480487569323e-03 -4.068658847955879294e-03 -4.202057186135524022e-03 -4.335455494066203959e-03 -4.468853770787664659e-03 -4.602252015339624788e-03 -4.735650226761813422e-03 -4.869048404093947492e-03 -5.002446546375763879e-03 -5.135844652646995127e-03 -5.269242721947346025e-03 -5.402640753316582944e-03 -5.536038745794400265e-03 -5.669436698420548745e-03 -5.802834610234773073e-03 -5.936232480276778904e-03 -6.069630307586316130e-03 -6.203028091203118162e-03 -6.336425830166934892e-03 -6.469823523517487587e-03 -6.603221170294517467e-03
6.096183234710345750e-18 5.973028681328975593e-18 5.849874087326507346e-18 5.726719453540396210e-18 5.603564780808212938e-18 5.480410069967561412e-18 5.357255321855651082e-18 5.234100537310323104e-18 5.110945717169255314e-18 4.987790862269535445e-18 4.864635973449049334e-18 4.741481051545344624e-18 4.618326097395801017e-18 4.495171111838046278e-18 4.372016095709549471e-18 4.248861049847932196e-18 4.125705975090715134e-18 4.002550872275355796e-18 3.879395742239536639e-18 3.756240585820674345e-18 3.633085403856479107e-18 3.509930197184396108e-18 3.386774966642050029e-18 3.263619713066808248e-18 3.140464437296341667e-18 3.017309140168301546e-18 2.894153822519943942e-18 2.770998485189193597e-18 2.647843129013388614e-18 2.524687754830130176e-18 2.401532363476930105e-18 2.278376955791465083e-18 2.155221532611063198e-18 2.032066094773541338e-18 1.908910643116303087e-18 1.785755178476851023e-18 1.662599701692926923e-18 1.539444213601867157e-18 1.416288715041379991e-18 1.293133206848987453e-18 1.169977689862236033e-18 1.046822164918693789e-18 9.236666328558923788e-19 8.005110945113697214e-19 6.773555507227690827e-19 5.542000023276018990e-19 4.310444501634124920e-19 3.078888950677590500e-19 1.847333378782087409e-19 6.157777943233477527e-20 -6.157777943233478731e-20 -1.847333378782103057e-19 -3.078888950677624685e-19 -4.310444501634030068e-19 -5.542000023276155731e-19 -6.773555507227887272e-19 -8.005110945114146919e-19 -9.236666328558896825e-19 -1.046822164918682040e-18 -1.169977689862249514e-18 -1.293133206849042342e-18 -1.416288715041407531e-18 -1.539444213601848475e-18 -1.662599701692825234e-18 -1.785755178476848327e-18 -1.908910643116266880e-18 -2.032066094773536330e-18 -2.155221532611133687e-18 -2.278376955791472402e-18 -2.401532363476943972e-18 -2.524687754830155213e-18 -2.647843129013378214e-18 -2.770998485189290279e-18 -2.894153822519978994e-18 -3.017309140168226435e-18 -3.140464437296315860e-18 -3.263619713066800929e-18 -3.386774966642037703e-18 -3.509930197184387634e-18 -3.633085403856483729e-18 -3.756240585820705931e-18 -3.879395742239526624e-18 -4.002550872275269514e-18 -4.125705975090645031e-18 -4.248861049847862092e-18 -4.372016095709537916e-18 -4.495171111838087108e-18 -4.618326097395777906e-18 -4.741481051545418579e-18 -4.864635973449099408e-18 -4.987790862269608631e-18 -5.110945717169188292e-18 -5.234100537310279963e-18 -5.357255321855669571e-18 -5.480410069967479752e-18 -5.603564780808212167e-18 -5.726719453540400062e-18 -5.849874087326533539e-18 -5.973028681329025667e-18 -6.096183234710344209e-18
0.000000000000000000e+00 0.000000000000000000e+00 0.000000000000000000e+00 0.000000000000000000e+00 0.000000000000000000e+00 0.000000000000000000e+00 0.000000000000000000e+00 0.000000000000000000e+00 0.000000000000000000e+00 0.000000000000000000e+00 0.000000000000000000e+00 0.000000000000000000e+00 0.000000000000000000e+00 0.000000000000000000e+00 0.000000000000000000e+00 0.000000000000000000e+00 0.000000000000000000e+00 0.000000000000000000e+00 0.000000000000000000e+00 0.000000000000000000e+00 0.000000000000000000e+00 0.000000000000000000e+00 0.000000000000000000e+00 0.000000000000000000e+00 0.000000000000000000e+00 0.000000000000000000e+00 0.000000000000000000e+00 0.000000000000000000e+00 0.000000000000000000e+00 0.000000000000000000e+00 0.000000000000000000e+00 0.000000000000000000e+00 0.000000000000000000e+00 0.000000000000000000e+00 0.000000000000000000e+00 0.000000000000000000e+00 0.000000000000000000e+00 0.000000000000000000e+00 0.000000000000000000e+00 0.000000000000000000e+00 0.000000000000000000e+00 0.000000000000000000e+00 0.000000000000000000e+00 0.000000000000000000e+00 0.000000000000000000e+00 0.000000000000000000e+00 0.000000000000000000e+00 0.000000000000000000e+00 0.000000000000000000e+00 0.000000000000000000e+00 0.000000000000000000e+00 0.000000000000000000e+00 0.000000000000000000e+00 0.000000000000000000e+00 0.000000000000000000e+00 0.000000000000000000e+00 0.000000000000000000e+00 0.000000000000000000e+00 0.000000000000000000e+00 0.000000000000000000e+00 0.000000000000000000e+00 0.000000000000000000e+00 0.000000000000000000e+00 0.000000000000000000e+00 0.000000000000000000e+00 0.000000000000000000e+00 0.000000000000000000e+00 0.000000000000000000e+00 0.000000000000000000e+00 0.000000000000000000e+00 0.000000000000000000e+00 0.000000000000000000e+00 0.000000000000000000e+00 0.000000000000000000e+00 0.000000000000000000e+00 0.000000000000000000e+00 0.000000000000000000e+00 0.000000000000000000e+00 0.000000000000000000e+00 0.000000000000000000e+00 0.000000000000000000e+00 0.000000000000000000e+00 0.000000000000000000e+00 0.000000000000000000e+00 0.000000000000000000e+00 0.000000000000000000e+00 0.000000000000000000e+00 0.000000000000000000e+00 0.000000000000000000e+00 0.000000000000000000e+00 0.000000000000000000e+00 0.000000000000000000e+00 0.000000000000000000e+00 0.000000000000000000e+00 0.000000000000000000e+00 0.000000000000000000e+00 0.000000000000000000e+00 0.000000000000000000e+00 0.000000000000000000e+00 0.000000000000000000e+00
